t,ax,ay,az,gx,gy,gz
788201245,0.0874,-0.0117,-1.0571,0.201,0.005,-0.000
788214245,0.0937,-0.0078,-1.0581,-0.165,0.067,0.061
788227245,0.0947,-0.0103,-1.0586,-0.104,-0.056,0.122
788240245,0.0903,-0.0132,-1.0542,-0.104,-0.117,-0.061
788253245,0.0894,-0.0146,-1.0562,-0.043,-0.056,-0.000
788266245,0.0952,-0.0098,-1.0630,-0.287,-0.178,-0.366
788279245,0.0894,-0.0112,-1.0605,0.018,-0.056,0.122
788292245,0.0908,-0.0117,-1.0596,0.079,-0.117,-0.122
788305245,0.0918,-0.0117,-1.0591,-0.104,0.005,-0.183
788318245,0.0913,-0.0098,-1.0547,-0.104,0.128,-0.061
788331245,0.0933,-0.0137,-1.0562,-0.043,0.128,0.183
788344245,0.0884,-0.0127,-1.0576,0.201,-0.056,0.061
788357245,0.0889,-0.0088,-1.0610,-0.104,0.128,0.183
788370245,0.0913,-0.0098,-1.0503,0.079,-0.056,0.061
788383245,0.0918,-0.0117,-1.0542,0.018,0.005,0.061
788396245,0.0942,-0.0137,-1.0566,0.018,0.189,0.122
788409245,0.0903,-0.0107,-1.0649,0.201,0.128,0.061
788422245,0.0889,-0.0127,-1.0557,-0.104,0.311,0.122
788435245,0.0923,-0.0127,-1.0601,-0.349,0.189,-0.061
788448245,0.0952,-0.0151,-1.0620,0.079,0.189,0.061
788461245,0.0894,-0.0098,-1.0576,0.018,-0.056,-0.061
788474245,0.0884,-0.0103,-1.0566,-0.104,0.005,-0.122
788487245,0.0898,-0.0132,-1.0576,0.140,-0.056,0.122
788500245,0.0952,-0.0112,-1.0562,0.018,0.067,0.061
788513245,0.0908,-0.0103,-1.0552,0.018,0.005,-0.122
788526245,0.0903,-0.0107,-1.0596,0.079,0.189,0.122
788539245,0.0957,-0.0103,-1.0591,0.079,0.005,-0.000
788552245,0.0894,-0.0088,-1.0610,-0.043,0.067,-0.183
788565245,0.0913,-0.0127,-1.0635,0.018,-0.117,0.244
788578245,0.0913,-0.0093,-1.0625,-0.104,0.128,0.366
788591245,0.0933,-0.0146,-1.0596,0.018,0.189,-0.000
788604245,0.0854,-0.0112,-1.0537,-0.104,0.189,0.061
788617245,0.0967,-0.0088,-1.0586,-0.165,-0.117,-0.061
788630245,0.0864,-0.0122,-1.0615,0.140,0.067,-0.000
788643245,0.0928,-0.0156,-1.0576,-0.043,-0.117,0.305
788656245,0.0913,-0.0103,-1.0591,0.079,0.005,-0.122
788669245,0.0903,-0.0132,-1.0601,0.018,-0.117,-0.061
788682245,0.0908,-0.0098,-1.0659,0.323,0.005,0.061
788695245,0.0889,-0.0103,-1.0645,0.018,-0.361,-0.061
788708245,0.0913,-0.0151,-1.0581,0.384,-0.239,-0.000
788721245,0.0903,-0.0122,-1.0532,-0.043,-0.300,-0.000
788734245,0.0894,-0.0078,-1.0649,0.262,-0.117,-0.000
788747245,0.0889,-0.0137,-1.0659,-0.043,-0.239,0.122
788760245,0.0889,-0.0112,-1.0576,0.079,-0.056,-0.000
788773245,0.0908,-0.0073,-1.0576,0.262,0.067,0.122
788786245,0.0879,-0.0107,-1.0488,-0.043,-0.056,-0.183
788799245,0.0898,-0.0112,-1.0596,-0.226,0.067,0.061
788812245,0.0923,-0.0107,-1.0566,0.262,-0.117,-0.183
788825245,0.0908,-0.0093,-1.0552,-0.043,0.067,0.244
788838245,0.0923,-0.0146,-1.0601,0.262,-0.056,0.122
788851245,0.0918,-0.0088,-1.0620,-0.043,-0.178,-0.061
788864245,0.0918,-0.0137,-1.0542,0.079,0.128,-0.000
788877245,0.0947,-0.0127,-1.0581,-0.043,-0.178,0.122
788890245,0.0889,-0.0142,-1.0640,0.018,0.005,0.061
788903245,0.0903,-0.0103,-1.0630,-0.165,0.005,-0.122
788916245,0.0894,-0.0122,-1.0679,0.140,0.067,-0.061
788929245,0.0947,-0.0112,-1.0557,0.140,0.067,0.061
788942245,0.0884,-0.0132,-1.0601,-0.226,0.067,0.244
788955245,0.0952,-0.0117,-1.0503,-0.104,0.067,0.061
788968245,0.0889,-0.0112,-1.0654,-0.287,0.067,0.122
788981245,0.0962,-0.0137,-1.0576,0.323,0.067,0.061
788994245,0.0898,-0.0107,-1.0596,0.201,-0.056,-0.122
789007245,0.0933,-0.0103,-1.0518,0.018,0.005,0.061
789020245,0.0889,-0.0117,-1.0571,0.018,0.005,-0.122
789033245,0.0908,-0.0117,-1.0557,0.079,0.189,-0.122
789046245,0.0908,-0.0088,-1.0557,0.140,-0.178,0.122
789059245,0.0894,-0.0068,-1.0571,0.018,-0.056,-0.183
789072245,0.0928,-0.0156,-1.0566,0.018,-0.056,-0.183
789085245,0.0898,-0.0098,-1.0571,-0.043,0.311,0.183
789098245,0.0952,-0.0103,-1.0537,0.079,0.067,-0.122
789111245,0.0908,-0.0088,-1.0571,-0.104,0.189,-0.061
789124245,0.0879,-0.0112,-1.0630,0.018,0.189,-0.183
789137245,0.0928,-0.0132,-1.0566,-0.165,0.128,0.061
789150245,0.0923,-0.0093,-1.0640,0.079,-0.117,-0.061
789163245,0.0913,-0.0117,-1.0552,0.140,-0.056,-0.061
789176245,0.0957,-0.0107,-1.0605,0.018,0.128,0.305
789189245,0.0903,-0.0112,-1.0596,-0.104,0.128,0.122
789202245,0.0903,-0.0127,-1.0605,-0.165,-0.300,0.061
789215245,0.0933,-0.0103,-1.0601,-0.043,0.005,-0.122
789228245,0.0908,-0.0137,-1.0581,-0.287,0.067,-0.122
789241245,0.0894,-0.0117,-1.0571,-0.104,-0.117,-0.000
789254245,0.0874,-0.0112,-1.0654,0.018,0.067,-0.366
789267245,0.0913,-0.0107,-1.0610,-0.043,0.250,-0.061
789280245,0.0933,-0.0093,-1.0615,0.018,0.311,-0.000
789293245,0.0894,-0.0098,-1.0591,0.140,-0.056,0.305
789306245,0.0933,-0.0132,-1.0615,-0.043,-0.056,0.244
789319245,0.0923,-0.0142,-1.0537,-0.165,-0.239,0.061
789332245,0.0942,-0.0093,-1.0591,-0.043,-0.422,0.061
789345245,0.0908,-0.0112,-1.0596,-0.043,0.128,-0.000
789358245,0.0923,-0.0137,-1.0610,0.201,-0.056,-0.061
789371245,0.0894,-0.0088,-1.0630,0.140,0.005,0.061
789384245,0.0947,-0.0127,-1.0522,0.201,0.005,-0.061
789397245,0.0908,-0.0098,-1.0435,-0.104,0.433,-0.000
789410245,0.0903,-0.0127,-1.0806,-0.104,0.005,-0.183
789423245,0.0894,-0.0083,-1.0508,0.384,-0.300,-0.000
789436245,0.0928,0.0122,-1.0273,-2.973,1.592,-0.611
789449245,0.1421,-0.0649,-1.2383,-0.654,3.057,-0.427
789462245,0.0796,-0.0151,-1.0391,-0.043,-0.117,0.122
789475245,0.0923,-0.0137,-1.0640,-0.898,0.005,-0.244
789488245,0.1113,-0.0156,-1.0718,0.079,0.494,0.183
789501245,0.1040,0.0693,-0.9717,-3.156,3.546,-0.183
789514245,0.0659,0.0059,-1.0005,-2.363,1.470,-0.183
789527245,0.1060,-0.0054,-1.0874,-0.287,0.067,0.183
789540245,0.0464,-0.0005,-1.0020,1.483,-3.962,0.671
789553245,-0.0205,-0.0542,-0.8574,6.243,-7.380,1.281
789566245,0.1001,-0.0132,-1.0513,1.055,0.372,0.244
789579245,0.0845,-0.0137,-1.0508,-0.043,-0.300,0.061
789592245,0.0942,-0.0142,-1.0571,-0.043,0.189,-0.244
789605245,0.0962,-0.0078,-1.0601,0.018,-0.117,-0.183
789618245,0.0859,-0.0132,-1.0503,0.262,-0.483,0.061
789631245,0.0933,-0.0103,-1.0581,0.201,0.189,-0.122
789644245,0.0957,-0.0088,-1.0591,0.506,-0.178,0.061
789657245,0.0859,-0.0034,-1.0630,-2.241,1.592,-0.550
789670245,0.1230,-0.0166,-1.0967,0.201,0.677,-0.244
789683245,0.0869,-0.0146,-1.0552,-0.410,-0.056,-0.000
789696245,0.0781,-0.0039,-1.0342,0.140,-0.422,0.061
789709245,0.0864,-0.0161,-1.0532,0.201,0.250,0.122
789722245,0.0903,-0.0239,-1.0649,1.544,-0.849,0.305
789735245,0.0889,-0.0156,-1.0576,0.262,0.433,-0.183
789748245,0.0903,-0.0107,-1.0679,0.445,-1.154,0.122
789761245,0.0918,-0.0073,-1.0547,0.262,-0.056,-0.061
789774245,0.0928,-0.0107,-1.0581,0.018,-0.056,-0.000
789787245,0.0928,-0.0127,-1.0571,0.323,-0.239,0.305
789800245,0.0879,-0.0112,-1.0610,0.323,-0.239,-0.000
789813245,0.0884,-0.0156,-1.0596,0.567,-0.483,-0.000
789826245,0.0942,-0.0137,-1.0601,0.384,-0.300,-0.000
789839245,0.0947,-0.0112,-1.0581,0.018,-0.117,0.061
789852245,0.0908,-0.0122,-1.0605,0.201,0.005,0.122
789865245,0.0889,-0.0117,-1.0591,0.079,0.128,0.183
789878245,0.0874,-0.0122,-1.0581,-0.104,0.005,0.061
789891245,0.0879,-0.0063,-1.0591,-0.165,-0.117,-0.000
789904245,0.0937,-0.0112,-1.0586,-0.043,0.189,0.061
789917245,0.0928,-0.0107,-1.0605,-0.104,0.067,-0.122
789930245,0.0928,-0.0103,-1.0571,-0.104,-0.056,-0.061
789943245,0.0864,-0.0225,-1.0796,1.422,-1.032,0.244
789956245,0.0894,-0.0049,-1.0581,0.201,-0.056,0.122
789969245,0.0923,-0.0127,-1.0557,0.079,0.128,-0.061
789982245,0.0933,-0.0103,-1.0586,0.140,0.128,-0.000
789995245,0.0874,-0.0093,-1.0498,0.018,0.128,-0.000
790008245,0.0903,-0.0044,-1.0542,0.018,0.189,-0.183
790021245,0.0923,-0.0068,-1.0557,0.262,-0.178,-0.000
790034245,0.0947,-0.0146,-1.0601,0.689,-0.117,0.183
790047245,0.0898,-0.0142,-1.0679,2.398,-0.422,0.366
790060245,0.0903,-0.0073,-1.0610,3.130,0.067,0.244
790073245,0.0918,-0.0039,-1.0469,-0.898,-0.178,-0.366
790086245,0.0913,-0.0161,-1.0737,0.933,-0.178,0.061
790099245,0.0898,-0.0039,-1.0518,0.689,-0.056,0.183
790112245,0.0933,0.0020,-1.0342,-1.325,-0.056,0.305
790125245,0.0854,-0.0259,-1.0762,0.079,-0.178,0.366
790138245,0.1006,0.0073,-1.0591,1.177,-0.605,1.892
790151245,0.1001,0.0195,-1.0444,-0.410,-0.239,5.371
790164245,0.0757,-0.0322,-1.0381,-1.447,-0.117,2.807
790177245,0.0645,-0.0273,-1.0464,-3.400,-0.727,0.915
790190245,0.0898,-0.0430,-1.1265,0.567,0.311,2.258
790203245,0.1045,0.0117,-1.0703,-0.471,-0.239,2.868
790216245,0.0889,-0.0464,-1.0776,-0.043,0.250,6.042
790229245,0.1143,0.0283,-1.0371,-1.630,0.189,6.592
790242245,0.1553,0.0464,-1.1001,-1.752,0.982,13.550
790255245,0.0923,-0.0054,-1.0464,-1.142,-1.398,16.968
790268245,0.1191,-0.0332,-1.1631,-0.715,3.362,17.517
790281245,0.0376,-0.0347,-0.9653,-1.569,-2.619,16.479
790294245,0.0703,-0.0425,-1.0410,-0.715,-0.056,9.033
790307245,0.0552,-0.0337,-1.0576,-0.410,0.189,2.441
790320245,0.0908,-0.0151,-1.0542,-0.104,0.005,1.098
790333245,0.1118,0.0181,-1.0610,-0.532,-0.178,2.624
790346245,0.1094,-0.0010,-1.0776,0.201,-0.239,0.793
790359245,0.1182,0.0298,-1.0464,-0.532,0.067,2.990
790372245,-0.1592,-0.0220,-0.7529,6.793,-17.451,9.460
790385245,0.1523,0.0474,-1.0894,-1.020,0.616,8.362
790398245,0.1284,0.0928,-1.0430,-3.889,0.677,15.320
790411245,0.1255,0.0605,-1.0225,-4.377,2.874,20.263
790424245,0.0303,-0.0308,-1.0610,-9.687,0.799,19.653
790437245,0.0049,-0.3550,-1.0415,7.220,-0.788,2.685
790450245,0.1001,-0.0146,-1.0742,-0.104,0.372,0.488
790463245,0.0947,-0.0142,-1.0952,1.360,-0.971,-1.099
790476245,0.0869,0.0029,-1.0610,1.238,-1.276,0.305
790489245,0.0952,-0.0171,-1.0596,3.069,-3.351,0.427
790502245,0.1333,0.0112,-1.0679,0.079,-2.375,6.408
790515245,0.0708,-0.0366,-1.0601,-0.165,-0.178,0.366
790528245,0.0879,-0.0112,-1.0518,0.323,-0.666,0.122
790541245,0.0815,-0.0078,-1.0571,-0.471,0.005,-0.000
790554245,0.0874,-0.0093,-1.0610,-0.532,0.067,-0.000
790567245,0.0923,-0.0171,-1.0576,0.445,-0.178,-0.122
790580245,0.0894,-0.0098,-1.0508,0.079,-0.300,0.122
790593245,0.0933,-0.0107,-1.0601,0.689,-0.544,0.122
790606245,0.0928,-0.0103,-1.0596,1.055,-1.154,0.976
790619245,0.0972,-0.0107,-1.0576,-0.410,-0.056,3.784
790632245,0.0898,-0.0142,-1.0610,0.018,0.005,2.380
790645245,0.0767,-0.0459,-1.0630,1.605,-0.727,0.061
790658245,0.0928,-0.0073,-1.0586,-0.104,0.189,0.061
790671245,0.0918,-0.0083,-1.0425,0.506,-0.239,0.122
790684245,0.0933,-0.0073,-1.0547,1.360,-2.619,0.732
790697245,0.0859,-0.0044,-1.0405,-0.104,-0.178,-0.061
790710245,0.0918,-0.0073,-1.0586,-0.165,-0.117,-0.000
790723245,0.0913,-0.0093,-1.0459,0.323,0.311,0.122
790736245,0.0913,-0.0151,-1.0601,0.140,-0.239,-0.061
790749245,0.0957,-0.0142,-1.0547,0.201,0.189,-0.061
790762245,0.0908,-0.0137,-1.0737,0.018,-0.056,0.122
790775245,0.0933,-0.0117,-1.0532,0.140,0.128,-0.000
790788245,0.1099,-0.0459,-1.1030,2.398,0.738,0.427
790801245,0.0913,-0.0146,-1.0449,-0.104,0.250,-0.183
790814245,0.0908,-0.0088,-1.0601,0.018,0.189,-0.061
790827245,0.0972,-0.0103,-1.0664,0.079,-0.422,-0.000
790840245,0.0923,-0.0078,-1.0571,0.323,-0.361,-0.061
790853245,0.0889,-0.0156,-1.0420,0.750,-0.422,0.122
790866245,0.0889,-0.0166,-1.0654,-0.043,0.250,-0.183
790879245,0.0898,-0.0088,-1.0581,-0.226,0.250,-0.122
790892245,0.0928,-0.0107,-1.0439,-0.043,0.372,0.061
790905245,0.0933,-0.0117,-1.0625,-0.104,0.005,-0.000
790918245,0.0942,-0.0107,-1.0522,-0.104,0.128,-0.000
790931245,0.0937,-0.0063,-1.0571,-0.226,-0.056,0.122
790944245,0.0898,-0.0117,-1.0581,-0.104,-0.056,0.122
790957245,0.0898,-0.0107,-1.0557,0.018,0.189,0.061
790970245,0.0928,-0.0088,-1.0552,-0.165,0.311,-0.305
790983245,0.0937,-0.0122,-1.0557,-0.043,-0.117,-0.061
790996245,0.0928,-0.0093,-1.0635,-0.226,-0.056,-0.183
791009245,0.0894,-0.0127,-1.0640,-0.104,0.067,-0.122
791022245,0.0898,-0.0088,-1.0571,-0.043,-0.056,0.183
791035245,0.0923,-0.0117,-1.0601,-0.104,0.372,-0.122
791048245,0.0928,-0.0127,-1.0625,-0.043,-0.056,-0.183
791061245,0.0933,-0.0073,-1.0596,-0.226,0.311,0.122
791074245,0.0928,-0.0132,-1.0654,-0.226,0.372,-0.122
791087245,0.0903,-0.0098,-1.0562,0.079,-0.056,-0.122
791100245,0.0903,-0.0049,-1.0542,0.018,0.005,0.122
791113245,0.0884,-0.0122,-1.0605,-0.287,0.250,-0.183
791126245,0.0933,-0.0132,-1.0562,-0.287,0.494,0.061
791139245,0.0898,-0.0117,-1.0508,-0.165,0.311,-0.000
791152245,0.0918,-0.0117,-1.0552,0.018,0.128,-0.000
791165245,0.0913,-0.0142,-1.0581,-0.043,0.189,0.061
791178245,0.0889,-0.0176,-1.0625,-0.104,0.250,0.061
791191245,0.0933,-0.0117,-1.0576,0.018,0.128,-0.000
791204245,0.0942,-0.0039,-1.0552,-0.104,0.067,-0.000
791217245,0.0908,-0.0107,-1.0576,-0.104,0.128,-0.000
791230245,0.0879,-0.0093,-1.0620,-0.776,1.043,-0.000
791243245,0.0483,-0.0156,-1.0132,0.567,-24.286,0.915
791256245,0.1177,-0.0132,-1.0679,-3.339,1.898,-0.855
791269245,0.1084,-0.0161,-1.0498,0.445,5.560,0.488
791282245,0.1592,0.0396,-1.0381,-0.593,0.738,2.807
791295245,0.1289,-0.0312,-1.0371,-0.471,0.860,-1.465
791308245,0.1499,-0.0029,-1.0469,0.750,-2.131,-3.540
791321245,0.0581,-0.0288,-1.0308,1.055,0.616,-7.813
791334245,0.0400,-0.0312,-1.0601,1.055,-0.239,-6.531
791347245,-0.0083,-0.0161,-1.0796,0.262,0.616,-0.977
791360245,0.0908,-0.0137,-1.0498,0.201,0.921,0.122
791373245,0.0991,-0.0098,-1.0615,0.140,1.531,-0.061
791386245,0.1250,-0.0151,-1.0967,-0.043,5.499,-0.183
791399245,0.0957,-0.0137,-1.0615,-0.349,0.982,0.061
791412245,0.0933,-0.0151,-1.0542,-0.410,0.799,-0.000
791425245,0.0898,-0.0117,-1.0630,-0.532,0.921,-0.427
791438245,0.0962,-0.0078,-1.0596,-0.776,0.799,-0.550
791451245,0.0903,-0.0117,-1.0425,-0.104,-0.422,-2.381
791464245,0.0864,-0.0117,-1.0459,0.506,-13.178,-0.122
791477245,0.0864,-0.0137,-1.0576,-0.471,4.339,-0.061
791490245,0.0898,-0.0117,-1.0640,0.445,3.240,0.244
791503245,0.1494,0.0835,-1.0752,-0.837,15.875,6.408
791516245,0.1064,0.0737,-1.0308,-0.715,14.410,24.109
791529245,0.0947,0.0122,-1.0610,-3.705,34.185,27.832
791542245,0.1807,-0.0337,-1.1128,-1.264,59.393,25.879
791555245,0.0083,-0.0513,-1.0845,-1.752,57.134,24.292
791568245,-0.0020,-0.0410,-1.0171,-1.142,49.688,17.334
791581245,-0.0112,-0.0244,-1.0366,-0.165,38.458,14.465
791594245,0.1216,0.0410,-1.1006,4.229,15.814,15.808
791607245,-0.0186,-0.0596,-1.0723,3.008,9.344,12.756
791620245,0.0337,0.0503,-1.0806,2.154,11.846,11.474
791633245,0.0225,0.0396,-1.0532,0.079,10.565,16.723
791646245,0.0288,-0.0020,-1.0889,0.140,10.626,16.968
791659245,0.0146,-0.0049,-1.1060,-0.471,8.856,17.090
791672245,-0.0200,-0.0459,-1.0464,-0.349,8.795,15.503
791685245,0.0054,-0.0532,-1.0508,2.947,6.170,11.596
791698245,0.0229,-0.0562,-1.0830,8.380,6.414,8.423
791711245,0.0239,-0.0972,-1.1040,9.112,8.917,2.807
791724245,0.0259,-0.1206,-1.2173,7.830,20.696,-6.348
791737245,0.0264,-0.0190,-1.2280,4.473,29.730,-10.865
791750245,0.0205,0.0635,-1.1587,4.656,37.603,-7.630
791763245,0.0098,0.0688,-1.0996,8.196,40.533,-1.770
791776245,0.0620,-0.0190,-1.1211,10.333,47.125,-8.362
791789245,0.0034,-0.0923,-1.1289,8.196,48.162,-11.658
791802245,-0.0542,-0.0684,-1.0703,-13.044,53.411,-16.236
791815245,-0.0332,-0.0029,-1.1138,-28.852,57.928,-20.386
791828245,-0.0361,-0.0244,-1.1719,-25.556,66.900,-20.813
791841245,-0.0479,-0.0024,-1.1626,-20.429,75.872,-20.325
791854245,-0.0322,0.0083,-1.1426,-19.147,84.905,-18.433
791867245,-0.1118,-0.0249,-1.0972,-26.105,89.605,-22.217
791880245,-0.1787,0.0254,-1.0410,-41.303,89.483,-21.057
791893245,-0.2124,0.0215,-1.0244,-53.266,90.582,-14.527
791906245,-0.2407,-0.0415,-1.1069,-54.243,93.084,-11.902
791919245,-0.2983,-0.0728,-1.0845,-50.947,98.394,-10.559
791932245,-0.2686,-0.0498,-1.0845,-44.904,105.901,-12.085
791945245,-0.2510,-0.0571,-1.0068,-44.111,104.254,-13.550
791958245,-0.2466,-0.1323,-1.0459,-42.646,105.901,-18.555
791971245,-0.2515,-0.1055,-1.0254,-46.735,106.695,-21.790
791984245,-0.2729,-0.0908,-0.9883,-51.618,106.268,-22.217
791997245,-0.3477,-0.0874,-0.8696,-59.675,101.507,-18.799
792010245,-0.3491,-0.0991,-0.9121,-67.182,99.798,-16.419
792023245,-0.3511,-0.1157,-0.9248,-68.036,94.366,-14.832
792036245,-0.3188,-0.2202,-0.9502,-56.684,88.751,-15.198
792049245,-0.3799,-0.1963,-0.9849,-38.740,83.807,-23.194
792062245,-0.4253,-0.1865,-0.9448,-25.312,87.103,-25.818
792075245,-0.4922,-0.0796,-0.9404,-31.965,89.361,-27.344
792088245,-0.4224,-0.1294,-0.9346,-45.637,89.788,-25.330
792101245,-0.4141,-0.1777,-0.8721,-49.726,95.464,-26.123
792114245,-0.3540,-0.2368,-0.8491,-43.561,78.680,-28.382
792127245,-0.4687,-0.2407,-0.8638,-36.420,66.900,-32.166
792140245,-0.5796,-0.1528,-0.7964,-33.552,67.510,-28.931
792153245,-0.5864,-0.1367,-0.8428,-28.730,64.459,-23.987
792166245,-0.5679,-0.2012,-0.8589,-26.105,65.679,-24.109
792179245,-0.5537,-0.2437,-0.8433,-20.429,64.764,-28.931
792192245,-0.5215,-0.2778,-0.8315,-13.471,51.214,-27.954
792205245,-0.7549,-0.5312,-1.2715,89.312,23.016,-43.335
792218245,-0.6743,0.0562,-0.7549,-20.978,41.021,-16.724
792231245,-0.6733,-0.2104,-0.9536,-36.115,46.819,-17.456
792244245,-0.6802,-0.2397,-0.8291,-37.458,67.693,-20.691
792257245,-0.6182,-0.1519,-0.7788,-46.003,63.909,-22.339
792270245,-0.6040,-0.1406,-0.6846,-48.261,52.740,-20.386
792283245,-0.6592,-0.1465,-0.6855,-45.453,38.946,-14.405
792296245,-0.7275,-0.1504,-0.7002,-45.698,33.575,-9.705
792309245,-0.7412,-0.1851,-0.7812,-42.646,39.373,-8.911
792322245,-0.6987,-0.2280,-0.7827,-46.430,45.294,-12.818
792335245,-0.6934,-0.2627,-0.7979,-47.590,44.378,-16.846
792348245,-0.6543,-0.1855,-0.7056,-42.829,39.129,-14.221
792361245,-0.6533,-0.1851,-0.6611,-38.923,26.678,-11.353
792374245,-0.6821,-0.2129,-0.6230,-30.683,12.151,-5.249
792387245,-0.7300,-0.2178,-0.6880,-22.504,6.292,0.366
792400245,-0.7446,-0.2441,-0.7500,-19.697,7.818,0.244
792413245,-0.7202,-0.2837,-0.7578,-23.908,10.992,-3.601
792426245,-0.7124,-0.3154,-0.7666,-24.152,12.945,-9.766
792439245,-0.6929,-0.2290,-0.6855,-22.687,9.466,-9.278
792452245,-0.7056,-0.2407,-0.6538,-21.772,0.433,-4.578
792465245,-0.8013,-0.4751,-0.6943,-17.682,-0.422,-9.217
792478245,-0.7310,-0.1870,-0.7056,-1.142,0.189,-10.987
792491245,-0.7515,-0.1499,-0.6943,-11.945,-3.229,-1.953
792504245,-0.7305,-0.2964,-0.6738,-7.123,-3.229,-0.733
792517245,-0.7393,-0.2319,-0.6714,-0.349,-7.441,-1.038
792530245,-0.7046,-0.2100,-0.6553,0.811,-9.821,2.014
792543245,-0.8022,-0.2178,-0.5767,0.689,-20.807,5.981
792556245,-0.7207,-0.2783,-0.6963,4.412,-24.653,5.859
792569245,-0.6865,-0.2910,-0.7729,2.764,-24.470,2.685
792582245,-0.6890,-0.2788,-0.7251,-7.673,-30.146,1.831
792595245,-0.6743,-0.2329,-0.7021,-10.969,-31.489,2.441
792608245,-0.6372,-0.2051,-0.6465,-1.569,-43.024,10.437
792621245,-0.5972,-0.2930,-0.5625,1.544,-62.922,13.977
792634245,-0.5605,-0.2095,-0.5376,4.351,-91.181,23.437
792647245,-0.6304,-0.1929,-0.5635,14.239,-111.628,33.142
792660245,-0.6914,-0.2109,-0.6543,24.981,-124.201,36.926
792673245,-0.6680,-0.2500,-0.7568,37.982,-124.750,36.010
792686245,-0.5879,-0.2817,-0.8315,48.724,-128.657,34.240
792699245,-0.5332,-0.2368,-0.7944,48.419,-131.342,32.043
792712245,-0.4551,-0.2627,-0.8257,48.419,-137.446,28.381
792725245,-0.4922,-0.2075,-0.8203,46.160,-142.267,26.367
792738245,-0.4902,-0.1445,-0.8682,55.743,-143.610,29.114
792751245,-0.4575,-0.2134,-0.8271,66.668,-145.380,28.259
792764245,-0.3296,-0.1104,-0.8203,85.833,-154.841,35.705
792777245,-0.2485,-0.0645,-0.9077,101.397,-159.540,45.349
792790245,-0.1826,-0.1382,-0.9854,110.674,-169.367,55.176
792803245,-0.2261,-0.3687,-0.9380,107.195,-170.893,44.250
792816245,-0.1284,-0.3120,-1.2715,97.430,-148.127,28.991
792829245,-0.1670,-0.2847,-1.3857,86.016,-131.037,12.756
792842245,-0.1738,-0.1528,-1.1689,62.396,-130.244,9.521
792855245,-0.1587,-0.0474,-0.9766,32.855,-141.840,9.216
792868245,-0.1772,0.0542,-0.8721,12.652,-148.493,14.099
792881245,-0.1812,-0.0361,-0.8965,9.966,-142.817,13.611
792894245,-0.0669,-0.0859,-0.9775,22.845,-127.497,12.817
792907245,0.0273,-0.1021,-1.1040,39.874,-118.281,6.164
792920245,0.0806,-0.1201,-1.2041,62.396,-89.167,-0.794
792933245,0.0474,-0.0366,-1.2617,57.086,-72.016,-3.906
792946245,-0.0479,-0.0513,-1.3750,-3.339,-100.580,8.117
792959245,0.1548,-0.1904,-1.3257,-27.387,-87.214,6.958
792972245,-0.0117,-0.0791,-1.1465,-9.016,-95.026,9.582
792985245,-0.1631,0.1162,-1.3042,60.198,-49.555,-5.493
792998245,-0.0513,0.0078,-1.1802,-6.330,-45.161,9.155
793011245,0.1465,-0.0728,-1.0786,-27.570,-42.414,-0.183
793024245,0.0923,-0.1499,-1.0493,-7.245,-52.607,-0.855
793037245,0.1533,-0.0483,-1.1514,1.483,-74.518,3.357
793050245,0.2358,-0.0430,-1.0903,-10.236,-95.392,9.216
793063245,0.2896,-0.0996,-1.0391,-12.922,-106.928,14.038
793076245,0.3003,-0.1040,-1.0044,-22.138,-122.187,14.770
793089245,0.2842,-0.0996,-1.0132,-31.599,-135.065,13.183
793102245,0.2700,-0.0933,-0.9829,-26.288,-143.732,11.291
793115245,0.3193,-0.0898,-1.0508,-16.218,-144.282,9.704
793128245,0.3604,-0.1689,-0.9932,-9.321,-134.577,1.587
793141245,0.3486,-0.1582,-0.9814,-8.710,-134.028,-5.921
793154245,0.2979,-0.1074,-1.0176,-15.790,-140.375,-7.324
793167245,0.3223,-0.1670,-1.1084,-1.691,-142.512,-8.118
793180245,0.3203,-0.1055,-0.9521,-39.228,-132.624,-13.367
793193245,0.3374,-0.0645,-0.9409,-39.228,-121.027,-13.184
793206245,0.3799,-0.0386,-0.9536,-30.988,-115.412,-4.944
793219245,0.3799,-0.1035,-0.9248,-15.058,-102.778,-2.625
793232245,0.4043,-0.0874,-0.9199,-1.569,-93.256,-0.244
793245245,0.3984,-0.1450,-0.9360,-0.471,-91.486,-3.479
793258245,0.4263,-0.0908,-0.9639,-7.368,-83.185,-3.113
793271245,0.5181,-0.1665,-0.9014,-18.537,-80.744,-5.554
793284245,0.5859,-0.1558,-0.8394,-31.660,-93.806,-5.799
793297245,0.5942,-0.1587,-0.8677,-40.571,-108.759,-6.165
793310245,0.5698,-0.1313,-0.9097,-44.172,-117.914,-1.465
793323245,0.5933,-0.1045,-0.8823,-49.238,-114.435,0.244
793336245,0.6050,-0.0288,-0.8271,-44.782,-109.919,8.545
793349245,0.6475,-0.1689,-0.8188,-36.481,-97.468,12.329
793362245,0.6787,-0.2310,-0.8193,-28.364,-89.533,6.714
793375245,0.7339,-0.2158,-0.7905,-32.453,-90.937,5.737
793388245,0.6924,-0.2607,-0.8638,-41.974,-97.773,-2.564
793401245,0.6895,-0.1948,-0.7876,-56.989,-102.473,-7.752
793414245,0.7368,-0.1978,-0.7275,-66.877,-108.393,-6.165
793427245,0.8022,-0.1929,-0.6387,-69.868,-124.445,0.305
793440245,0.8687,-0.2192,-0.5815,-67.304,-151.423,3.540
793453245,0.9512,-0.2939,-0.5259,-71.271,-172.663,3.357
793466245,0.8872,-0.2769,-0.5986,-75.117,-178.644,-0.000
793479245,0.7822,-0.2588,-0.7798,-74.811,-164.057,-5.738
793492245,0.7524,-0.2852,-0.7764,-69.257,-133.417,-6.775
793505245,0.7905,-0.2061,-0.6758,-69.562,-111.689,-7.019
793518245,0.8125,-0.2119,-0.5474,-65.046,-102.411,-3.418
793531245,0.8848,-0.2676,-0.3550,-63.703,-96.186,-2.747
793544245,0.8789,-0.2139,-0.3208,-62.604,-106.196,2.197
793557245,0.9268,-0.2568,-0.3833,-53.266,-112.787,-1.831
793570245,0.9048,-0.3540,-0.3408,-41.547,-104.914,-2.747
793583245,0.8857,-0.3174,-0.3208,-37.092,-94.477,-8.789
793596245,0.8442,-0.3193,-0.3726,-40.204,-88.740,-9.461
793609245,0.8130,-0.3052,-0.3682,-43.012,-73.420,-10.926
793622245,0.8555,-0.2749,-0.2559,-39.289,-75.068,-12.329
793635245,0.8359,-0.2476,-0.2266,-33.246,-75.739,-7.202
793648245,0.8408,-0.3198,-0.2085,-30.256,-64.753,-4.883
793661245,0.8813,-0.3223,-0.1650,-23.725,-58.954,-3.174
793674245,0.9272,-0.3398,-0.1108,-23.176,-52.668,-3.174
793687245,0.8770,-0.3267,-0.1763,-23.786,-63.471,-1.709
793700245,0.8906,-0.2920,-0.1846,-32.819,-68.415,2.685
793713245,0.8975,-0.3345,-0.2031,-34.467,-65.851,4.394
793726245,0.8286,-0.3301,-0.1514,-29.523,-67.988,-0.550
793739245,0.8745,-0.3149,-0.1284,-26.716,-73.786,-0.855
793752245,0.8740,-0.3320,-0.1206,-28.181,-72.687,-3.662
793765245,0.8931,-0.3140,-0.0610,-25.617,-78.364,-2.564
793778245,0.9434,-0.3203,-0.0425,-25.983,-89.411,-0.733
793791245,0.9077,-0.3608,0.1094,-32.758,-44.306,3.174
793804245,0.9614,-0.3115,-0.0205,-12.800,-53.828,3.479
793817245,0.9087,-0.3276,-0.0615,-10.114,-48.456,3.052
793830245,0.9287,-0.3149,-0.0493,-12.250,-40.644,2.136
793843245,0.9087,-0.3091,-0.0425,-15.180,-35.700,5.798
793856245,0.9355,-0.2534,-0.3081,16.558,-33.259,6.103
793869245,0.8467,-0.3042,0.1602,-16.706,-28.681,1.159
793882245,0.7935,-0.3657,-0.1772,8.318,0.250,6.042
793895245,0.8530,-0.2993,-0.0420,-9.748,22.222,4.760
793908245,0.8306,-0.3721,-0.0503,-3.828,24.114,8.667
793921245,0.9233,-0.3340,0.0718,-6.635,21.246,10.010
793934245,0.9033,-0.3120,0.0371,-3.156,17.278,8.178
793947245,0.9146,-0.3589,-0.0181,-1.203,26.739,7.019
793960245,0.8950,-0.3403,-0.0615,-0.593,41.143,3.235
793973245,0.9185,-0.2983,-0.0015,-0.349,49.078,0.488
793986245,0.9219,-0.2451,0.0317,4.656,49.444,5.310
793999245,0.9092,-0.2568,-0.0186,16.131,51.092,10.925
794012245,0.9097,-0.2925,-0.0903,19.793,64.886,13.977
794025245,0.9341,-0.3423,-0.1191,21.258,77.581,10.742
794038245,0.9438,-0.3403,-0.1221,20.464,85.027,9.460
794051245,1.0352,-0.3574,-0.0142,17.169,77.581,4.699
794064245,1.0352,-0.3306,-0.0439,19.976,63.055,3.906
794077245,0.9893,-0.2803,-0.1226,19.793,56.890,5.737
794090245,0.9106,-0.2695,-0.2314,14.422,61.346,4.883
794103245,0.8403,-0.2280,-0.3271,19.732,83.196,15.442
794116245,0.8833,-0.2920,-0.3804,25.714,121.099,18.493
794129245,1.0571,-0.2974,-0.3037,48.480,145.269,2.868
794142245,0.9561,-0.2520,-0.2227,43.597,143.499,1.404
794155245,0.9937,-0.1924,-0.2041,32.977,133.001,5.005
794168245,0.8872,-0.1929,-0.2793,31.207,130.743,9.460
794181245,0.8540,-0.2158,-0.3672,40.606,145.147,15.625
794194245,0.8237,-0.1646,-0.4492,34.991,165.777,20.874
794207245,0.8252,-0.2998,-0.5020,29.803,179.388,12.085
794220245,0.8359,-0.2856,-0.5171,29.315,186.102,9.582
794233245,0.8267,-0.2676,-0.5400,43.597,189.398,7.202
794246245,0.7935,-0.2583,-0.5132,54.949,197.393,5.737
794259245,0.7686,-0.1841,-0.5327,63.311,201.238,12.085
794272245,0.8003,-0.2393,-0.5527,75.274,201.238,12.878
794285245,0.8027,-0.2461,-0.6040,76.006,200.750,11.963
794298245,0.7812,-0.2271,-0.6699,76.983,192.388,10.498
794311245,0.7041,-0.1846,-0.7246,78.082,180.364,12.817
794324245,0.6128,-0.1875,-0.7988,77.288,176.336,13.122
794337245,0.5928,-0.1587,-0.8496,75.396,177.740,12.817
794350245,0.5854,-0.1118,-0.8218,73.504,176.519,13.794
794363245,0.5737,-0.0703,-0.8223,70.025,174.566,19.043
794376245,0.5220,-0.0791,-0.9023,67.095,190.496,22.278
794389245,0.4995,-0.1123,-0.9434,62.396,219.061,22.644
794402245,0.5142,-0.1514,-0.9736,57.269,261.297,20.630
794415245,0.2896,-0.0840,-1.1191,67.706,217.474,18.371
794428245,0.3784,0.0293,-1.0635,45.794,153.692,17.212
794441245,0.3872,-0.2031,-1.0137,35.601,158.026,23.193
794454245,0.4463,0.0264,-0.9951,40.728,137.640,12.451
794467245,0.3994,-0.0801,-0.9033,48.480,121.160,11.230
794480245,0.4214,0.1650,-0.8052,50.860,86.675,21.423
794493245,0.3955,0.1899,-0.7710,47.564,50.298,38.635
794506245,0.3354,-0.0898,-0.6973,48.846,41.265,36.621
794519245,0.2368,-0.1509,-1.1108,72.711,50.543,17.578
794532245,0.0967,-0.0742,-1.2451,72.344,63.055,7.995
794545245,0.0562,0.0044,-1.2427,51.043,64.276,5.493
794558245,0.0703,0.0078,-1.1812,24.676,65.984,3.906
794571245,0.1313,0.0928,-1.0986,10.272,68.487,2.746
794584245,0.1226,0.0610,-1.0894,8.685,65.557,0.610
794597245,0.1543,0.0723,-1.0537,9.295,54.205,-2.930
794610245,0.1479,0.0908,-1.0264,5.389,39.800,-3.540
794623245,0.1240,0.0684,-1.0723,-0.104,25.640,-3.418
794636245,0.1318,0.0732,-1.1133,-5.048,23.870,-4.822
794649245,0.0986,0.1440,-1.1074,-12.800,21.063,-2.808
794662245,0.0635,0.1064,-1.0894,-19.391,21.795,2.136
794675245,0.1143,0.1343,-1.1064,-10.969,20.941,5.859
794688245,0.0806,0.1777,-1.0381,-1.508,15.142,13.977
794701245,0.0835,0.1665,-1.0313,3.680,6.964,24.109
794714245,0.1313,0.1055,-1.0640,4.839,0.860,25.146
794727245,0.1514,0.0791,-1.0479,4.901,-6.464,26.062
794740245,0.1240,0.0557,-1.0552,-0.104,-20.136,29.175
794753245,0.1025,0.1162,-1.0225,-9.138,-36.921,37.353
794766245,0.0518,0.1187,-1.0576,-15.668,-47.236,46.875
794779245,0.0728,0.1353,-1.0513,-17.194,-46.198,52.002
794792245,0.0210,0.1592,-1.0283,-15.302,-42.902,63.110
794805245,0.0703,0.1475,-1.0923,-12.189,-43.818,77.514
794818245,0.1846,0.1440,-1.1069,-13.227,-51.447,85.449
794831245,0.2168,0.1221,-1.0195,-19.697,-49.372,88.989
794844245,0.0835,0.0723,-1.0293,-19.025,-46.015,90.393
794857245,0.0737,0.2998,-0.8706,-34.894,-62.189,113.830
794870245,0.1328,0.2622,-0.9004,-50.519,-85.688,144.653
794883245,0.1460,0.2705,-0.9043,-57.538,-106.684,178.955
794896245,0.2358,0.1196,-1.0820,-51.191,-106.440,201.355
794909245,0.3979,-0.0850,-1.1890,-35.871,-96.308,192.810
794922245,0.5063,-0.1655,-1.1304,-27.570,-73.054,150.451
794935245,0.4814,-0.0391,-1.0396,-20.368,-39.118,103.149
794948245,0.1260,0.0811,-0.6909,1.177,-14.460,96.008
794961245,0.1299,0.1841,-0.9233,-6.696,-14.094,86.548
794974245,0.2402,0.0044,-0.9712,-57.477,-5.244,84.839
794987245,0.1592,0.1289,-0.8721,-69.929,-20.563,113.403
795000245,0.2690,0.0332,-1.2168,-73.163,-34.113,132.019
795013245,0.3682,-0.1523,-1.3052,-48.688,-20.746,134.948
795026245,0.3823,-0.0625,-1.1216,-21.894,-20.746,121.460
795039245,0.4673,-0.0942,-1.2124,17.230,-7.319,99.975
795052245,0.1675,-0.0366,-0.5630,2.764,5.804,67.566
795065245,0.2666,0.0928,-0.8081,1.971,-5.793,73.364
795078245,0.2529,0.1562,-0.9585,-15.424,-7.258,68.908
795091245,0.2295,0.1826,-0.9878,-10.236,8.367,67.932
795104245,0.1514,0.0981,-0.9194,-9.870,18.316,67.505
795117245,0.2666,0.1699,-1.0190,-20.551,31.500,71.228
795130245,0.2832,0.1055,-1.0298,-21.100,37.115,72.876
795143245,0.2612,-0.0200,-1.0361,-20.063,33.697,67.444
795156245,0.3799,-0.0366,-1.0562,-14.203,34.918,56.518
795169245,0.4185,0.0288,-1.0947,-0.043,37.603,44.677
795182245,0.3369,0.0635,-1.0278,8.502,30.279,47.180
795195245,0.2446,0.1309,-1.0254,1.666,12.518,57.068
795208245,0.1558,0.1401,-0.9531,-7.917,-6.464,67.138
795221245,0.1147,0.0137,-0.9683,-19.086,-18.061,65.613
795234245,0.1782,0.0913,-1.0420,-21.955,-18.366,61.401
795247245,0.1665,0.0513,-1.0562,-15.485,1.043,52.856
795260245,0.2207,0.0942,-1.1025,-6.513,24.908,41.748
795273245,0.2388,0.1753,-1.0825,3.192,41.693,39.062
795286245,0.2544,0.1304,-1.0537,7.525,46.148,39.551
795299245,0.3003,0.1304,-0.9990,4.839,38.214,41.748
795312245,0.3174,-0.0059,-1.0469,3.619,32.598,34.973
795325245,0.2529,0.0303,-0.9946,-3.400,20.208,21.728
795338245,0.1816,0.0020,-0.9604,-12.800,1.959,9.277
795351245,0.1890,0.1206,-1.0229,-16.340,-4.999,1.770
795364245,0.1494,0.1260,-0.9692,-16.584,-2.680,-6.897
795377245,0.2095,0.0933,-1.0181,-3.766,9.893,-17.273
795390245,0.1973,0.0322,-1.0142,10.882,18.499,-30.579
795403245,0.2231,0.0010,-0.9868,14.483,19.720,-47.119
795416245,0.2612,0.0762,-1.0391,12.042,15.203,-58.655
795429245,0.2603,0.1846,-1.1377,-4.865,5.193,-57.984
795442245,0.2095,0.1211,-1.0225,0.689,-2.497,-50.293
795455245,0.2241,0.0449,-1.0947,-3.034,-9.882,-58.655
795468245,0.2026,-0.0396,-1.0684,-2.973,-10.126,-73.792
795481245,0.2183,0.0015,-1.1245,-3.950,-5.427,-88.440
795494245,0.2095,0.1851,-1.1870,-3.156,11.053,-90.576
795507245,0.1284,0.1104,-1.0718,-0.959,15.386,-90.821
795520245,0.1558,0.0356,-1.0684,6.182,26.495,-93.994
795533245,0.0894,-0.0190,-1.1191,19.732,25.091,-100.891
795546245,0.1201,-0.1079,-1.0728,11.981,38.030,-120.423
795559245,0.1582,-0.1641,-0.9731,-8.588,50.176,-158.753
795572245,0.1079,0.0913,-1.2349,23.882,75.567,-154.969
795585245,-0.0098,-0.0708,-0.6250,30.657,36.382,-158.936
795598245,0.4517,0.4468,-0.8701,26.019,5.132,-112.000
795611245,0.1255,0.4648,-0.9551,61.297,-25.812,-73.914
795624245,0.2017,0.0542,-0.8667,48.663,-27.338,-81.299
795637245,0.2012,-0.1035,-1.0522,56.536,-8.173,-116.944
795650245,0.1333,-0.1304,-0.9219,49.944,-2.497,-132.752
795663245,0.1299,-0.1567,-1.0518,34.991,-29.536,-153.504
795676245,0.4331,0.3105,-1.4712,29.620,-16.291,-140.259
795689245,0.1899,0.4189,-1.1489,24.432,8.917,-108.765
795702245,0.0425,0.2573,-0.9287,13.995,2.020,-82.459
795715245,0.1235,0.1929,-0.9038,1.483,-12.629,-75.440
795728245,0.2539,-0.0483,-0.9409,-9.748,-15.925,-94.544
795741245,0.2368,-0.1821,-1.0269,-9.321,-13.605,-130.371
795754245,0.3472,-0.1060,-0.9795,-12.250,-4.999,-162.720
795767245,0.6436,0.4082,-1.0674,-0.287,4.095,-169.007
795780245,0.2109,-0.0845,-1.0073,10.821,-4.816,-170.655
795793245,0.3174,0.2202,-1.2798,21.929,-8.661,-163.025
795806245,0.3584,0.2437,-1.0791,32.366,10.015,-153.443
795819245,0.3418,0.4199,-1.0098,33.526,27.838,-132.263
795832245,0.3145,0.4136,-0.8628,29.254,36.199,-110.779
795845245,0.2427,-0.0796,-0.9526,27.361,64.947,-124.146
795858245,0.2319,-0.1021,-0.9829,31.390,66.046,-137.757
795871245,0.1509,0.1230,-1.0620,44.512,30.462,-124.146
795884245,0.1523,0.1382,-1.2417,38.836,6.964,-109.009
795897245,0.1650,0.0391,-1.1406,17.352,16.302,-114.014
795910245,0.1343,0.1587,-1.0674,-1.325,39.312,-122.498
795923245,0.1011,0.1118,-1.0874,2.703,63.848,-125.000
795936245,0.1084,-0.0122,-1.2041,11.492,80.816,-137.512
795949245,0.1577,0.0898,-1.1416,10.089,85.882,-143.372
795962245,0.1001,0.3042,-1.0386,20.159,68.731,-120.484
795975245,0.0254,0.1099,-1.0688,25.652,56.707,-104.737
795988245,0.0430,0.0415,-1.0991,23.760,62.933,-111.389
796001245,0.0249,-0.0430,-1.0640,10.211,67.327,-127.564
796014245,0.0425,0.0195,-0.8115,12.713,57.684,-136.536
796027245,0.0425,0.1338,-1.0176,28.033,64.398,-131.104
796040245,0.0942,0.0176,-1.1123,24.920,69.647,-128.418
796053245,0.0254,0.1069,-1.0166,3.619,55.853,-131.958
796066245,0.0234,-0.0591,-1.1494,17.291,71.172,-127.564
796079245,0.0308,0.1357,-1.0664,14.056,58.538,-126.221
796092245,0.1699,0.2520,-0.9590,12.042,69.280,-119.080
796105245,0.1333,0.2427,-0.9204,22.601,71.722,-111.573
796118245,0.1040,-0.0361,-1.0815,64.654,89.544,-113.770
796131245,-0.0703,0.0620,-0.7578,79.119,68.853,-119.507
796144245,-0.0894,0.2417,-0.8110,60.748,45.355,-106.446
796157245,-0.1035,0.2378,-0.9214,49.029,35.406,-98.450
796170245,-0.0664,0.0752,-1.0322,52.935,28.143,-95.398
796183245,-0.0469,0.2183,-1.0005,53.851,28.265,-92.407
796196245,-0.0659,0.1909,-1.0117,48.358,26.434,-86.548
796209245,-0.1099,0.2349,-0.9429,35.235,12.579,-76.294
796222245,-0.1035,0.2671,-1.0073,32.122,-3.657,-64.148
796235245,-0.1304,0.0913,-1.0181,26.324,-5.060,-74.280
796248245,-0.1240,0.1919,-1.0830,33.709,-3.779,-66.529
796261245,-0.0835,0.2798,-1.0913,34.564,1.714,-62.073
796274245,-0.0942,0.3643,-1.1641,18.939,16.485,-62.744
796287245,-0.1289,0.3560,-1.0854,19.732,10.870,-56.946
796300245,-0.1572,0.1587,-1.0400,21.563,13.738,-55.725
796313245,-0.0786,0.3037,-1.0156,17.230,9.954,-38.697
796326245,-0.0576,0.3193,-1.0190,15.399,7.269,-32.715
796339245,-0.1353,0.1992,-1.0352,20.831,6.292,-32.715
796352245,-0.1772,0.2632,-1.1084,30.169,7.635,-28.687
796365245,-0.1333,0.3774,-1.1011,19.305,6.597,-16.602
796378245,-0.1763,0.3950,-1.0278,11.004,-4.328,-2.930
796391245,-0.0977,0.4722,-1.0376,8.013,-24.042,14.221
796404245,-0.1440,0.3892,-0.9404,-1.020,-32.343,41.198
796417245,-0.1675,0.3169,-1.0337,18.389,-44.001,70.007
796430245,-0.1177,0.2852,-1.1396,11.981,-41.193,78.796
796443245,-0.0757,0.2871,-1.1104,-16.889,-25.080,75.989
796456245,-0.0776,0.3481,-1.0342,-23.847,-22.822,86.731
796469245,-0.0737,0.3354,-1.0317,-2.057,-38.874,96.924
796482245,-0.1753,0.3809,-0.8735,5.755,-61.274,111.328
796495245,-0.1724,0.4624,-0.9932,3.436,-87.702,137.573
796508245,-0.1206,0.4175,-1.0298,-1.935,-103.449,170.105
796521245,-0.0859,0.3633,-1.1890,-4.438,-113.337,187.134
796534245,-0.0449,0.0464,-1.1152,-19.208,-102.900,176.635
796547245,0.0288,0.1138,-1.0225,-43.561,-57.001,134.582
796560245,-0.0068,0.0791,-1.0786,-27.143,-12.446,101.990
796573245,-0.0864,0.2720,-1.0576,-0.165,33.819,102.173
796586245,-0.2871,0.4878,-1.1426,38.531,75.323,116.699
796599245,-0.2441,0.4741,-1.0347,41.888,83.990,124.084
796612245,0.0811,0.3804,-0.8657,41.094,80.450,119.323
796625245,0.2026,0.1382,-0.8018,45.367,47.064,105.591
796638245,0.2373,0.0820,-0.8984,59.344,22.222,91.919
796651245,0.0078,0.1357,-0.9346,49.578,-42.719,91.797
796664245,-0.0410,0.1470,-1.2314,12.591,-53.278,88.073
796677245,-0.2437,0.3623,-1.2300,-32.880,-33.625,92.102
796690245,-0.2217,0.0889,-1.2422,-40.815,-7.197,99.975
796703245,0.0742,0.3613,-1.0278,-35.566,14.349,105.835
796716245,0.0034,0.3389,-0.9404,-25.861,-3.657,104.248
796729245,-0.0420,0.2764,-0.8296,-19.697,-36.310,100.830
796742245,-0.1367,0.4824,-0.7080,-30.256,-80.561,97.290
796755245,-0.1235,0.3125,-0.9570,-34.040,-133.906,114.441
796768245,-0.0933,0.1372,-1.3706,-34.894,-146.906,128.357
796781245,-0.0889,0.2646,-1.3774,-66.633,-146.967,156.555
796794245,0.0576,0.4199,-1.2607,-124.921,-115.351,179.626
796807245,-0.0742,0.3135,-1.1318,-135.847,-94.538,179.260
796820245,0.0820,0.2559,-0.8555,-103.498,-77.631,181.152
796833245,0.1401,0.2187,-0.7549,-66.938,-71.711,182.983
796846245,-0.0586,0.1626,-0.7197,-27.631,-75.800,186.523
796859245,0.0186,0.2075,-0.9429,-7.245,-75.373,180.725
796872245,0.1260,0.2173,-1.0962,-17.133,-71.528,185.241
796885245,0.1924,0.1885,-1.1343,-39.594,-83.552,197.815
796898245,0.1802,0.0435,-1.1025,-70.417,-101.801,183.960
796911245,0.3120,0.2012,-0.9839,-113.630,-134.150,180.359
796924245,0.1875,0.0034,-1.0693,-150.129,-153.864,169.800
796937245,0.0039,0.0688,-1.0039,-152.387,-145.441,155.639
796950245,0.0210,0.1162,-0.8789,-123.640,-118.830,161.743
796963245,0.2998,-0.0249,-1.0371,-57.416,-63.593,153.381
796976245,0.4116,-0.2715,-0.9771,22.234,13.616,111.206
796989245,0.4395,-0.1660,-1.1211,76.800,62.628,72.754
797002245,0.2549,0.1084,-1.0498,62.579,36.871,65.796
797015245,0.3047,0.0288,-1.0269,5.999,3.607,65.918
797028245,0.3730,-0.0088,-1.0488,-36.909,-3.840,55.237
797041245,0.2466,0.0107,-0.9922,-56.013,2.264,52.063
797054245,0.1484,0.0435,-1.0112,-65.656,-2.314,47.668
797067245,0.1592,0.0132,-1.0249,-52.228,-4.206,45.776
797080245,0.1895,0.0225,-0.9849,-25.434,-2.985,48.706
797093245,0.2275,-0.0601,-0.9697,-0.043,-6.281,42.907
797106245,0.3164,0.0039,-0.9419,14.910,-4.999,35.217
797119245,0.3291,-0.0835,-0.9541,7.891,-7.929,15.747
797132245,0.2231,-0.0723,-1.0210,6.548,-13.666,-1.892
797145245,0.1943,-0.0073,-1.0229,10.150,-16.413,-9.766
797158245,0.2573,-0.0127,-1.0576,4.107,-11.896,-18.433
797171245,0.2310,-0.0518,-1.0874,8.074,-3.535,-30.213
797184245,0.2280,-0.0752,-1.0757,18.511,5.682,-43.823
797197245,0.2798,-0.0889,-1.0288,29.925,13.677,-62.378
797210245,0.2720,-0.2349,-1.0186,39.874,22.772,-90.515
797223245,0.2642,-0.1304,-1.0005,43.170,30.523,-122.681
797236245,0.3237,-0.0908,-0.9785,34.930,37.420,-155.152
797249245,0.3179,0.0698,-1.0371,49.700,45.599,-163.330
797262245,0.1782,0.0850,-1.0483,64.898,44.439,-158.753
797275245,0.1582,0.0278,-1.0630,67.278,49.261,-160.706
797288245,0.1772,0.1533,-1.0552,63.189,50.421,-159.607
797301245,0.2231,0.0547,-1.0938,60.687,50.787,-164.612
797314245,0.2983,0.0049,-1.0864,55.316,55.792,-175.781
797327245,0.3481,0.2705,-0.8721,35.479,51.702,-170.044
797340245,0.1519,0.3457,-1.0278,39.996,26.800,-145.203
797353245,0.1748,0.2349,-1.0005,48.297,23.199,-133.667
797366245,0.1548,0.1523,-1.1084,56.475,43.463,-132.508
797379245,0.1274,0.1060,-0.9360,61.419,47.308,-136.292
797392245,0.1260,0.1543,-0.8950,54.278,26.312,-136.048
797405245,0.2163,0.1406,-1.0435,57.879,22.711,-136.597
797418245,0.1724,0.2744,-0.9390,67.950,13.311,-133.179
797431245,0.1885,0.3906,-0.8384,88.824,-11.225,-117.554
797444245,0.2354,0.1992,-0.9458,118.548,-20.014,-113.526
797457245,0.2241,0.0874,-1.1040,145.464,-9.150,-121.826
797470245,0.1079,0.1196,-1.2109,142.413,14.288,-135.071
797483245,0.1602,0.1396,-1.3687,121.783,27.410,-143.677
797496245,0.1743,0.2573,-1.2207,83.941,36.321,-149.353
797509245,0.2222,0.4307,-0.9731,47.442,31.805,-144.715
797522245,0.2710,0.2759,-0.9263,44.268,27.471,-143.189
797535245,0.2939,0.2393,-0.7944,63.128,21.856,-148.499
797548245,0.3237,0.2910,-0.8179,81.744,7.208,-165.772
797561245,0.3877,0.0913,-0.9189,96.575,19.293,-191.773
797574245,0.3843,0.2515,-0.8540,94.073,16.790,-198.548
797587245,0.2705,0.3965,-0.9385,72.833,-9.333,-202.759
797600245,0.3647,0.4141,-0.9307,49.578,-33.076,-194.824
797613245,0.4648,0.2661,-0.9556,36.089,-28.620,-204.651
797626245,0.6729,0.0073,-1.1035,62.823,15.630,-245.972
797639245,0.4058,0.1909,-0.9922,94.622,39.922,-261.292
797652245,-0.0356,0.6890,-0.6919,76.861,-32.343,-215.271
797665245,-0.1724,0.7642,-1.2964,53.240,-55.903,-150.940
797678245,-0.0122,0.5698,-1.3477,2.032,0.860,-133.179
797691245,0.0327,0.4492,-1.2153,-26.105,54.083,-120.117
797704245,-0.1582,0.4912,-1.0269,-23.359,58.050,-93.201
797717245,0.2930,0.6401,-1.0259,0.689,78.375,-86.060
797730245,0.1538,0.4375,-0.9521,11.004,86.370,-77.698
797743245,0.2329,0.4458,-0.6470,-3.644,50.421,-45.960
797756245,0.2295,0.4038,-0.7827,-6.574,5.865,-24.842
797769245,0.2231,0.2817,-0.9507,0.201,-7.502,-17.334
797782245,0.1650,0.3379,-1.0508,-5.353,-4.999,-10.498
797795245,0.0547,0.3628,-1.1299,-19.514,-4.633,9.460
797808245,0.0576,0.3608,-1.1885,-37.031,0.189,28.991
797821245,0.1221,0.3511,-1.1021,-48.627,18.926,24.963
797834245,0.2490,0.3301,-0.9717,-38.495,28.936,25.879
797847245,0.3047,0.3066,-0.8745,-27.997,22.405,23.865
797860245,0.2847,0.2393,-0.9487,-22.870,14.227,24.597
797873245,0.2319,0.2476,-0.9604,-24.396,8.550,27.160
797886245,0.2065,0.2783,-0.9932,-30.561,-2.741,39.673
797899245,0.2129,0.2515,-1.0962,-35.078,-7.624,58.044
797912245,0.2871,0.2744,-1.1299,-46.003,-2.253,77.942
797925245,0.0767,0.3628,-0.9932,-55.280,-14.399,82.885
797938245,-0.0303,0.4927,-0.9326,-53.815,-41.743,85.022
797951245,0.0332,0.4619,-0.9692,-52.839,-69.086,110.962
797964245,-0.1689,0.2827,-1.0649,-48.383,-90.693,138.122
797977245,0.3237,0.2090,-1.4556,-71.027,-47.236,165.222
797990245,0.4136,0.1333,-1.4209,-104.658,37.725,179.016
798003245,-0.0610,0.2217,-1.2720,-92.328,78.558,126.831
798016245,0.2729,0.3130,-1.1353,-75.910,108.343,126.098
798029245,0.2524,0.3779,-1.0171,-67.487,135.443,119.690
798042245,-0.0210,0.2847,-0.7090,-59.431,137.213,117.553
798055245,-0.0112,0.1084,-0.8760,-20.307,126.714,128.540
798068245,0.1704,0.1577,-0.8154,-3.583,85.943,139.038
798081245,0.1191,0.1206,-0.9824,-18.842,77.154,145.324
798094245,-0.0396,0.1411,-1.1040,-22.993,71.172,157.165
798107245,-0.2285,0.2578,-1.1108,-50.641,68.670,170.349
798120245,0.1045,0.2432,-1.1284,-74.506,100.408,138.366
798133245,0.0376,0.1733,-0.7656,-59.308,106.024,121.948
798146245,0.1978,0.1914,-0.5396,-33.674,60.491,116.516
798159245,0.1392,0.1777,-0.5283,-3.950,14.532,118.347
798172245,0.0757,0.0547,-0.7969,25.775,-1.642,116.821
798185245,-0.0771,0.1064,-1.0454,29.681,-17.145,131.592
798198245,-0.1689,0.2280,-1.4375,3.375,-8.661,175.964
798211245,-0.1533,0.3584,-1.3833,-54.548,-3.718,232.849
798224245,-0.4434,0.2148,-1.2993,-119.428,-42.353,236.267
798237245,-0.0107,0.2695,-1.1567,-142.438,-81.782,239.441
798250245,0.1558,0.0771,-1.0640,-194.623,-85.261,252.380
798263245,0.3384,0.1699,-0.8794,-187.665,-69.208,233.520
798276245,0.3081,0.1626,-0.7368,-146.406,-76.594,230.530
798289245,0.3340,0.4673,-0.9194,-73.530,-48.395,264.831
798302245,-0.2144,0.0283,-0.8345,36.822,-49.250,302.856
798315245,-0.3027,-0.4790,-0.4385,1.177,-15.314,281.799
798328245,0.2617,-0.4224,-1.2305,-10.847,25.945,195.801
798341245,0.5981,-0.2437,-1.2217,49.395,37.298,158.203
798354245,0.3198,-0.1943,-0.9531,38.653,-8.906,141.296
798367245,0.2056,0.0420,-0.9829,-16.462,-72.016,132.995
798380245,0.2983,-0.0093,-1.1641,-36.970,-92.219,130.615
798393245,0.1978,-0.1118,-1.1987,-10.297,-92.219,127.929
798406245,0.2573,-0.1782,-1.1343,-4.194,-89.655,114.685
798419245,0.3394,-0.2358,-1.2705,-34.467,-83.857,97.107
798432245,0.1499,-0.1455,-1.1880,-57.844,-52.790,71.716
798445245,0.1396,-0.1157,-1.1221,-44.355,-22.333,51.025
798458245,0.2397,-0.0298,-1.0649,1.360,29.913,41.076
798471245,0.2056,0.0117,-0.8950,33.099,51.031,42.358
798484245,0.2319,-0.1338,-0.9463,44.390,45.233,42.114
798497245,0.2617,-0.1558,-1.0439,33.953,27.960,35.339
798510245,0.1997,-0.1665,-1.0273,14.910,-2.192,30.273
798523245,0.2285,-0.1577,-1.0601,-3.950,-28.803,22.766
798536245,0.2876,-0.0625,-1.1123,-6.330,-36.860,19.775
798549245,0.2646,0.0640,-1.1104,-8.100,-34.907,25.024
798562245,0.3579,0.1436,-1.1279,-13.654,-28.925,34.424
798575245,0.1504,-0.1631,-1.0986,-9.077,-22.822,24.353
798588245,0.1069,-0.1992,-1.0225,-3.583,-8.723,12.878
798601245,0.2373,-0.2061,-1.0391,1.483,3.362,-9.949
798614245,0.3599,-0.0454,-1.0405,14.361,8.550,-22.339
798627245,0.3120,-0.1660,-1.0225,18.450,11.663,-41.809
798640245,0.2241,-0.0347,-0.9736,13.323,3.484,-51.331
798653245,0.2466,-0.0859,-0.9761,10.333,-3.718,-58.594
798666245,0.3013,-0.1187,-0.9370,11.187,-2.070,-76.844
798679245,0.3838,-0.2080,-0.9380,19.244,3.240,-107.422
798692245,0.2754,-0.1587,-0.9263,37.982,6.964,-130.127
798705245,0.1909,-0.1445,-0.9180,50.372,9.344,-155.030
798718245,0.2187,0.0356,-1.0205,58.367,18.804,-165.894
798731245,0.1387,0.0542,-1.0054,69.842,19.476,-161.377
798744245,0.2280,-0.0161,-1.0830,71.307,27.593,-170.532
798757245,0.2681,0.0581,-0.9785,74.114,35.955,-179.444
798770245,0.1982,-0.0640,-0.9653,81.317,29.669,-196.167
798783245,0.1704,-0.1069,-0.8555,92.852,21.429,-218.445
798796245,0.2632,-0.0923,-0.8706,103.167,-3.657,-232.544
798809245,0.5576,0.3086,-1.0103,111.041,-28.315,-226.929
798822245,0.3911,0.6943,-0.9185,108.599,-55.842,-188.050
798835245,0.2534,0.2598,-0.8408,108.416,-62.189,-164.002
798848245,0.3999,0.0923,-1.1494,132.525,-47.480,-188.843
798861245,0.4297,0.1333,-1.0493,170.489,-21.479,-198.731
798874245,0.2773,0.1665,-1.1260,167.681,-5.121,-204.529
798887245,0.1548,0.1631,-1.9180,181.231,51.458,-203.003
798900245,-0.0508,0.2295,-1.1333,135.089,57.989,-192.688
798913245,0.0967,0.3223,-1.0356,66.302,48.712,-179.627
798926245,0.2471,0.2324,-0.9834,59.893,50.543,-175.537
798939245,0.3193,0.4175,-0.8823,61.846,41.448,-160.767
798952245,0.1748,0.3774,-0.9619,34.686,39.861,-164.368
798965245,0.2100,0.1436,-1.0796,42.803,69.586,-181.092
798978245,0.0684,0.3604,-1.1631,43.414,60.919,-163.758
798991245,-0.0391,0.3984,-1.2026,39.141,39.922,-135.742
799004245,0.0562,0.3887,-1.2158,5.755,37.786,-113.587
799017245,0.1406,0.3574,-0.9902,-18.171,43.585,-107.727
799030245,0.3042,0.2368,-0.9326,5.572,50.359,-111.634
799043245,0.3149,0.1455,-0.9390,27.545,49.383,-123.657
799056245,0.1963,0.1870,-0.8301,26.202,46.331,-132.141
799069245,0.0815,0.2617,-0.9453,19.610,30.218,-117.798
799082245,0.0537,0.4106,-0.9868,8.135,7.696,-100.037
799095245,0.0967,0.2583,-1.0762,3.741,19.048,-90.454
799108245,0.0513,0.2783,-1.0376,11.370,30.157,-92.896
799121245,0.0190,0.2979,-1.0449,17.047,40.838,-81.848
799134245,0.0103,0.3398,-1.0078,10.272,30.401,-65.369
799147245,0.1294,0.2915,-0.9912,0.689,29.730,-51.270
799160245,0.2031,0.2402,-0.8281,-1.264,9.649,-44.434
799173245,0.2764,0.1763,-0.8687,2.398,-7.929,-46.875
799186245,0.1973,0.2266,-0.8960,9.356,-18.305,-50.781
799199245,0.1323,0.2368,-0.9868,13.445,-23.615,-47.058
799212245,0.0859,0.2344,-1.0835,13.568,-20.197,-41.504
799225245,0.1099,0.2217,-1.1177,4.534,-13.544,-36.011
799238245,0.1157,0.1841,-1.1719,0.933,-3.657,-35.095
799251245,0.1670,0.2109,-1.0767,-7.245,3.729,-32.715
799264245,0.1860,0.2388,-0.8940,-8.771,-6.586,-26.184
799277245,0.2124,0.2202,-0.9082,0.872,-20.869,-22.827
799290245,0.1665,0.1807,-1.1030,14.178,-13.972,-25.696
799303245,0.0747,0.2441,-1.2603,12.347,8.978,-27.283
799316245,0.0537,0.2393,-1.0791,-15.424,-3.901,-13.123
799329245,0.1763,0.2363,-1.0581,-19.819,-21.906,2.624
799342245,0.2144,0.1943,-0.9961,-20.551,-28.132,8.301
799355245,0.1885,0.2012,-1.0098,-15.241,-25.934,11.963
799368245,0.1489,0.1929,-1.0044,-8.710,-18.671,13.733
799381245,0.0898,0.0864,-0.9414,6.854,-12.873,26.733
799394245,0.0776,0.2466,-1.0010,9.295,-2.619,27.893
799407245,0.0317,0.2036,-1.0493,5.145,3.912,35.339
799420245,-0.0259,0.2588,-1.0093,1.422,12.640,33.813
799433245,0.1167,0.1592,-1.0142,2.398,24.847,38.940
799446245,0.2432,0.0972,-1.0200,7.098,32.659,33.142
799459245,0.2500,0.1187,-1.0908,0.262,35.528,31.372
799472245,0.1855,0.0981,-1.1260,-12.372,28.936,34.668
799485245,0.0859,0.1299,-1.1260,-27.570,22.283,41.015
799498245,-0.0195,0.1284,-1.0586,-37.336,20.880,39.184
799511245,0.0918,0.2075,-0.9751,-37.153,26.617,33.203
799524245,0.1660,0.1851,-1.0723,-26.960,39.068,20.080
799537245,0.1904,0.1353,-0.9971,-21.833,46.453,21.179
799550245,0.0156,0.1143,-1.0171,-17.499,49.261,15.625
799563245,-0.2446,0.0132,-0.9810,-33.674,53.533,9.155
799576245,-0.0620,0.2300,-0.9521,-42.768,48.101,29.907
799589245,0.0356,0.1743,-1.0425,-39.655,45.660,45.471
799602245,0.0752,0.2422,-1.0518,-29.584,49.505,51.269
799615245,0.0781,0.2261,-0.9849,-24.152,47.613,39.795
799628245,0.0747,0.1870,-1.0229,-12.861,47.186,39.856
799641245,0.0981,0.1621,-1.0933,-9.443,29.974,46.814
799654245,-0.0161,0.2266,-1.2056,-20.856,-3.657,71.289
799667245,-0.0381,0.1777,-1.1924,-48.505,-51.264,117.370
799680245,0.1021,0.1606,-1.2275,-89.094,-87.031,162.964
799693245,-0.0312,0.1045,-1.2891,-100.690,-78.974,201.599
799706245,0.0005,0.3721,-1.3809,-96.601,-13.544,112.976
799719245,0.1660,0.1182,-1.0854,-14.326,69.036,119.262
799732245,-0.1978,0.2300,-0.8604,65.020,107.672,128.601
799745245,-0.0796,0.3491,-0.8643,117.693,92.901,160.461
799758245,0.2588,0.0708,-1.1353,85.162,93.084,154.663
799771245,-0.0117,0.0176,-1.0044,63.128,88.934,135.071
799784245,-0.1157,0.2910,-0.8506,28.826,44.378,124.511
799797245,-0.1572,0.3223,-0.8315,11.309,-20.258,151.550
799810245,0.0210,0.0688,-1.1567,-17.133,-21.174,138.427
799823245,0.1382,0.1899,-1.0356,-37.336,13.616,106.079
799836245,0.2163,0.1226,-0.9590,3.008,21.856,99.426
799849245,0.2437,0.1919,-0.9233,6.732,17.278,86.975
799862245,0.1924,0.4512,-0.9697,-2.119,-2.680,120.544
799875245,-0.0342,0.1860,-0.9551,-1.142,-36.066,161.194
799888245,-0.2720,0.1968,-1.0015,-13.288,-67.011,176.635
799901245,-0.3979,0.2021,-1.0288,-28.791,-84.528,175.415
799914245,-0.3516,0.3164,-1.0054,-52.595,-97.712,183.105
799927245,-0.2051,0.3447,-1.0005,-66.328,-117.670,195.801
799940245,-0.1240,0.3027,-1.0044,-80.671,-138.788,218.933
799953245,0.0352,0.1870,-1.0996,-95.380,-148.981,234.558
799966245,0.1909,0.0688,-1.1816,-111.066,-152.521,250.122
799979245,0.3115,-0.0483,-1.2324,-128.095,-137.690,260.437
799992245,0.5293,0.2739,-1.0889,-146.284,-123.286,285.522
800005245,0.3257,0.2422,-0.8901,-144.758,-115.107,281.128
800018245,0.2485,0.0088,-0.8081,-132.429,-108.393,260.803
800031245,0.1274,-0.0801,-0.8115,-110.456,-96.918,225.219
800044245,0.2588,-0.1045,-0.8320,-64.557,-70.795,203.979
800057245,0.4131,-0.2856,-1.1152,27.117,6.292,176.574
800070245,0.4194,-0.1025,-0.7646,95.904,92.596,118.103
800083245,0.5630,-0.2524,-0.9683,78.936,83.318,74.219
800096245,0.6821,-0.0327,-0.8809,51.592,56.951,68.298
800109245,0.4912,-0.0640,-1.0801,21.441,9.039,40.649
800122245,0.3218,-0.1206,-1.0938,2.581,-43.452,44.800
800135245,0.2676,-0.1411,-1.0244,-20.307,-68.781,33.569
800148245,0.2383,-0.0283,-1.0562,-43.928,-70.917,31.738
800161245,0.2690,-0.0415,-0.9834,-41.913,-41.987,18.493
800174245,0.2603,-0.0903,-0.9575,-9.016,-7.929,4.455
800187245,0.3027,0.1011,-0.9580,16.802,17.339,1.465
800200245,0.3564,-0.1689,-0.9512,36.028,35.650,-9.949
800213245,0.3491,-0.0972,-0.9863,35.845,41.570,-26.917
800226245,0.3369,-0.0991,-0.9409,23.943,33.941,-40.650
800239245,0.3389,-0.0479,-1.0371,22.296,33.331,-52.857
800252245,0.3110,-0.0830,-1.0552,28.521,48.162,-72.022
800265245,0.3809,0.0005,-1.0361,20.953,54.815,-85.388
800278245,0.3169,0.0239,-0.9961,24.066,61.102,-94.116
800291245,0.2568,0.0049,-1.0742,29.376,73.004,-103.577
800304245,0.2417,0.0942,-1.0483,35.418,92.840,-114.380
800317245,0.1431,0.0586,-1.0303,50.067,99.981,-119.141
800330245,0.1919,-0.0059,-1.0854,69.232,113.897,-133.911
800343245,0.1929,0.0410,-0.9878,66.058,123.297,-136.963
800356245,0.1270,0.2305,-0.9639,61.480,125.005,-136.475
800369245,0.0220,0.2954,-1.0786,56.231,127.630,-116.883
800382245,-0.2134,0.2520,-0.8198,66.424,101.263,-97.107
800395245,-0.1577,0.1650,-0.8726,66.058,46.942,-59.632
800408245,-0.2319,1.6182,-0.2549,-198.591,-47.114,-11.841
800421245,-0.3911,0.4219,-0.9609,-94.160,45.660,-26.001
800434245,0.0410,-0.2056,-0.6509,-126.325,-57.490,-1.892
800447245,0.5239,0.5376,-2.6943,-177.961,-32.282,7.202
800460245,-0.0015,-0.0576,-2.3896,-110.273,-7.502,-10.559
800473245,-0.3306,-0.1826,-1.5713,-27.509,-2.009,-14.954
800486245,0.0698,0.0928,-1.2603,-0.959,6.841,6.286
800499245,0.0127,0.0171,-1.0352,-1.020,-1.276,0.305
800512245,0.0166,-0.0078,-1.0728,-0.410,-3.046,0.671
800525245,0.0103,-0.0020,-1.0649,0.262,-6.342,1.281
800538245,0.0229,-0.0088,-1.0645,-0.043,-9.150,2.258
800551245,0.0273,-0.0068,-1.0752,-0.104,-9.089,3.235
800564245,0.0449,0.0034,-1.0601,0.201,-5.854,7.507
800577245,0.0977,0.0034,-1.0605,-2.241,1.287,17.029
800590245,0.0459,-0.0259,-1.0771,-1.081,2.813,25.451
800603245,0.0083,0.0352,-1.0122,-1.813,-1.642,38.147
800616245,0.0146,0.0215,-1.0796,-1.386,2.752,37.048
800629245,-0.0332,-0.0068,-1.0469,-0.837,0.189,23.437
800642245,-0.0195,-0.0747,-1.0479,-0.715,-0.056,10.925
800655245,-0.1338,0.0181,-0.9629,0.628,-5.793,0.854
800668245,0.0239,-0.0112,-1.0586,1.422,-0.422,0.122
800681245,0.0127,-0.0205,-1.0698,0.994,-0.788,0.122
800694245,0.0063,-0.0107,-1.0649,0.506,-1.765,0.122
800707245,0.0210,-0.0034,-1.0547,-0.104,-0.971,-0.000
800720245,0.0220,-0.0112,-1.0747,0.140,0.250,0.122
800733245,0.0166,-0.0034,-1.0620,-0.165,-0.300,-0.000
800746245,0.0269,-0.0059,-1.0688,-0.287,0.433,-0.305
800759245,0.0200,-0.0029,-1.0620,-0.104,0.189,-0.061
800772245,0.0176,-0.0068,-1.0664,-0.226,-0.056,0.122
800785245,0.0146,-0.0059,-1.0693,-0.165,-0.361,0.244
800798245,0.0220,0.0000,-1.0659,0.201,-0.361,0.061
800811245,0.0220,-0.0024,-1.0649,-0.043,-0.178,0.122
800824245,0.0166,-0.0054,-1.0615,0.018,-0.117,-0.061
800837245,0.0190,-0.0049,-1.0610,-0.043,0.189,0.122
800850245,0.0210,-0.0044,-1.0649,0.018,0.433,0.305
800863245,0.0186,-0.0054,-1.0601,-0.165,0.372,0.061
800876245,0.0244,-0.0039,-1.0591,0.079,0.311,0.183
800889245,0.0229,-0.0029,-1.0620,0.079,-0.117,0.122
800902245,0.0195,-0.0044,-1.0654,-0.043,-0.178,-0.122
800915245,0.0190,-0.0044,-1.0625,-0.226,0.067,0.122
800928245,0.0200,-0.0054,-1.0605,0.018,0.128,0.061
800941245,0.0181,-0.0034,-1.0630,0.140,0.128,-0.122
800954245,0.0186,-0.0063,-1.0625,-0.165,0.005,-0.061
800967245,0.0176,-0.0005,-1.0630,-0.104,0.067,-0.000
800980245,0.0229,-0.0029,-1.0679,-0.043,0.189,0.061
800993245,0.0195,-0.0054,-1.0635,-0.043,0.067,-0.000
801006245,0.0215,-0.0059,-1.0547,-0.043,-0.056,0.183
801019245,0.0225,-0.0083,-1.0586,-0.043,0.189,-0.000
801032245,0.0244,-0.0044,-1.0591,-0.043,-0.300,0.061
801045245,0.0200,-0.0029,-1.0635,0.018,0.067,0.122
801058245,0.0190,-0.0054,-1.0635,0.018,0.250,0.122
801071245,0.0205,-0.0015,-1.0640,-0.104,0.005,-0.244
801084245,0.0161,-0.0078,-1.0620,-0.104,-0.056,0.183
801097245,0.0156,-0.0063,-1.0659,-0.104,-0.056,0.061
801110245,0.0146,-0.0068,-1.0596,0.079,-0.239,0.244
801123245,0.0190,-0.0044,-1.0635,-0.043,-0.056,-0.000
801136245,0.0205,-0.0078,-1.0679,-0.104,0.128,-0.000
801149245,0.0186,-0.0029,-1.0674,0.018,0.250,-0.061
801162245,0.0176,-0.0010,-1.0591,-0.043,-0.361,-0.000
801175245,0.0234,-0.0020,-1.0659,0.018,0.005,0.122
801188245,0.0234,-0.0059,-1.0542,0.262,0.189,0.244
801201245,0.0229,0.0000,-1.0669,0.140,0.189,-0.000
801214245,0.0200,-0.0063,-1.0679,-0.226,0.128,-0.061
801227245,0.0190,-0.0015,-1.0620,-0.104,0.005,0.122
801240245,0.0215,-0.0063,-1.0522,-0.165,-0.117,0.122
801253245,0.0220,-0.0068,-1.0615,-0.715,0.189,-0.366
801266245,0.0195,-0.0103,-1.0762,-0.165,0.128,0.183
801279245,0.0234,-0.0039,-1.0718,0.079,0.005,-0.061
801292245,0.0166,0.0000,-1.0547,0.262,-0.178,-0.061
801305245,0.0215,-0.0063,-1.0645,-0.349,0.128,-0.244
801318245,0.0171,-0.0044,-1.0576,-0.349,-0.056,-0.061
801331245,0.0215,-0.0083,-1.0620,-0.104,0.005,-0.000
801344245,0.0229,-0.0054,-1.0649,0.079,0.005,-0.122
801357245,0.0210,-0.0039,-1.0649,-0.226,0.128,0.061
801370245,0.0200,-0.0029,-1.0532,-0.349,0.128,0.061
801383245,0.0205,-0.0078,-1.0693,0.079,-0.117,-0.000
801396245,0.0181,-0.0054,-1.0630,-0.165,-0.239,-0.000
801409245,0.0205,0.0000,-1.0679,-0.043,0.189,0.183
801422245,0.0156,-0.0044,-1.0654,0.140,-0.178,-0.000
801435245,0.0176,-0.0039,-1.0586,-0.043,0.067,0.061
801448245,0.0181,-0.0063,-1.0615,-0.043,-0.056,-0.000
801461245,0.0190,-0.0049,-1.0605,0.018,-0.239,0.061
801474245,0.0200,-0.0044,-1.0537,-0.104,0.189,-0.183
801487245,0.0171,0.0020,-1.0625,-0.165,-0.178,-0.000
801500245,0.0181,-0.0029,-1.0649,-0.226,-0.239,-0.000
801513245,0.0200,-0.0029,-1.0654,0.018,-0.056,0.183
801526245,0.0151,-0.0068,-1.0615,-0.165,-0.117,0.244
801539245,0.0259,-0.0073,-1.0649,0.018,-0.178,-0.061
801552245,0.0234,-0.0054,-1.0635,-0.104,-0.056,-0.061
801565245,0.0181,-0.0024,-1.0615,0.079,0.067,-0.122
801578245,0.0215,-0.0073,-1.0713,-0.043,-0.117,-0.061
801591245,0.0186,-0.0078,-1.0630,-0.104,-0.178,0.122
801604245,0.0166,-0.0059,-1.0640,-0.043,-0.117,0.122
801617245,0.0186,-0.0063,-1.0620,-0.104,-0.056,0.183
801630245,0.0225,-0.0073,-1.0669,0.018,-0.239,-0.000
801643245,0.0176,-0.0054,-1.0664,0.140,-0.056,-0.000
801656245,0.0205,-0.0044,-1.0581,0.323,0.005,0.061
801669245,0.0181,-0.0063,-1.0635,-0.165,-0.361,-0.000
801682245,0.0225,-0.0005,-1.0615,-0.043,0.189,0.061
801695245,0.0166,-0.0005,-1.0645,0.079,0.067,0.122
801708245,0.0200,-0.0063,-1.0640,0.140,0.189,0.061
801721245,0.0195,-0.0044,-1.0635,-0.104,-0.178,0.122
801734245,0.0176,-0.0044,-1.0659,-0.043,-0.056,-0.061
801747245,0.0190,-0.0044,-1.0630,0.018,-0.117,0.061
801760245,0.0210,-0.0078,-1.0659,-0.043,-0.178,0.061
801773245,0.0195,0.0024,-1.0669,0.079,0.005,-0.000
801786245,0.0225,-0.0059,-1.0610,-0.165,0.067,0.122
801799245,0.0176,-0.0029,-1.0625,-0.043,-0.178,0.061
801812245,0.0205,-0.0049,-1.0620,-0.043,0.067,0.061
801825245,0.0190,-0.0029,-1.0640,-0.043,-0.178,0.122
801838245,0.0254,-0.0059,-1.0664,-0.104,-0.239,-0.122
801851245,0.0181,-0.0020,-1.0610,-0.104,-0.056,-0.000
801864245,0.0220,-0.0049,-1.0596,-0.043,-0.117,0.122
801877245,0.0215,0.0000,-1.0596,-0.226,-0.117,0.244
801890245,0.0186,-0.0054,-1.0649,0.018,0.005,0.061
801903245,0.0190,-0.0024,-1.0605,-0.104,-0.239,-0.061
801916245,0.0181,-0.0024,-1.0586,-0.165,-0.056,0.061
801929245,0.0186,-0.0029,-1.0649,0.018,-0.117,-0.061
801942245,0.0156,-0.0078,-1.0581,0.018,-0.239,0.122
801955245,0.0186,-0.0068,-1.0664,0.079,-0.300,0.183
801968245,0.0200,-0.0044,-1.0640,0.018,0.189,0.061
801981245,0.0171,-0.0029,-1.0630,0.079,-0.178,-0.000
801994245,0.0205,-0.0044,-1.0659,0.140,0.005,0.244
802007245,0.0161,-0.0039,-1.0615,0.262,-0.056,-0.122
802020245,0.0181,-0.0068,-1.0698,0.140,-0.178,0.122
802033245,0.0186,-0.0034,-1.0693,-0.226,-0.178,-0.000
802046245,0.0229,-0.0015,-1.0645,-0.104,0.005,0.122
802059245,0.0171,-0.0049,-1.0566,0.140,0.067,0.122
802072245,0.0195,-0.0005,-1.0645,-0.165,0.067,-0.122
802085245,0.0171,-0.0063,-1.0669,-0.104,0.128,0.122
802098245,0.0146,-0.0020,-1.0674,0.079,0.005,-0.122
802111245,0.0234,-0.0034,-1.0630,0.079,-0.239,0.122
802124245,0.0210,-0.0034,-1.0635,0.140,-0.056,-0.000
802137245,0.0210,-0.0073,-1.0610,0.140,0.005,-0.000
802150245,0.0205,-0.0024,-1.0591,0.140,0.005,0.061
802163245,0.0200,-0.0073,-1.0615,-0.226,-0.239,-0.122
802176245,0.0210,-0.0073,-1.0596,0.079,-0.178,0.183
802189245,0.0200,-0.0044,-1.0635,-0.165,0.005,-0.122
802202245,0.0200,-0.0015,-1.0654,0.140,0.067,-0.061
802215245,0.0234,-0.0034,-1.0635,-0.043,0.067,-0.000
802228245,0.0171,-0.0044,-1.0640,-0.043,-0.239,-0.000
802241245,0.0200,-0.0068,-1.0605,-0.043,0.189,0.183
802254245,0.0186,-0.0059,-1.0620,0.262,-0.422,-0.000
802267245,0.0215,-0.0083,-1.0684,-0.043,-0.239,0.061
802280245,0.0132,0.0020,-1.0586,0.079,0.005,-0.061
802293245,0.0210,-0.0010,-1.0562,-0.165,-0.117,-0.244
802306245,0.0151,-0.0029,-1.0591,-0.043,-0.056,0.122
802319245,0.0215,-0.0029,-1.0596,-0.226,0.128,0.061
802332245,0.0210,-0.0020,-1.0718,-0.104,-0.056,0.122
802345245,0.0205,-0.0044,-1.0664,0.201,-0.361,0.061
802358245,0.0205,-0.0039,-1.0630,-0.043,-0.117,-0.122
802371245,0.0205,0.0005,-1.0610,0.018,0.005,0.061
802384245,0.0210,-0.0078,-1.0625,-0.104,-0.117,0.061
802397245,0.0215,-0.0068,-1.0664,0.079,-0.178,-0.000
802410245,0.0220,-0.0063,-1.0635,-0.165,0.128,0.061
802423245,0.0215,-0.0093,-1.0703,-0.471,-0.056,0.183
802436245,0.0229,-0.0024,-1.0596,-0.226,0.067,0.183
802449245,0.0151,-0.0068,-1.0664,-0.165,0.005,-0.122
802462245,0.0195,-0.0054,-1.0649,0.018,0.005,0.244
802475245,0.0200,-0.0024,-1.0640,0.079,0.067,-0.183
802488245,0.0181,-0.0049,-1.0654,-0.043,0.067,0.122
802501245,0.0190,-0.0059,-1.0654,0.201,-0.056,0.305
802514245,0.0181,-0.0015,-1.0654,-0.043,-0.239,0.061
802527245,0.0186,-0.0024,-1.0630,-0.165,-0.056,-0.183
802540245,0.0215,-0.0078,-1.0601,0.018,-0.178,-0.183
802553245,0.0176,-0.0039,-1.0654,-0.104,0.005,-0.183
802566245,0.0210,-0.0063,-1.0674,-0.104,-0.239,-0.061
802579245,0.0171,-0.0063,-1.0679,-0.104,-0.117,-0.122
802592245,0.0210,-0.0073,-1.0674,0.262,-0.300,-0.000
802605245,0.0200,-0.0078,-1.0630,0.018,-0.117,-0.122
802618245,0.0195,-0.0024,-1.0630,0.079,0.067,0.061
802631245,0.0186,-0.0034,-1.0620,-0.226,0.005,-0.122
802644245,0.0225,-0.0039,-1.0640,-0.104,-0.117,0.122
802657245,0.0195,-0.0068,-1.0586,0.140,0.128,0.183
802670245,0.0210,-0.0063,-1.0688,0.140,-0.300,0.244
802683245,0.0195,-0.0078,-1.0674,-0.043,-0.056,-0.061
802696245,0.0190,-0.0049,-1.0630,-0.165,-0.300,0.061
802709245,0.0146,-0.0024,-1.0557,-0.043,-0.178,-0.061
802722245,0.0205,-0.0034,-1.0635,-0.043,0.005,-0.061
802735245,0.0190,-0.0044,-1.0625,-0.104,-0.056,-0.000
802748245,0.0151,-0.0024,-1.0635,-0.104,0.005,0.122
802761245,0.0166,-0.0083,-1.0625,-0.043,0.128,-0.061
802774245,0.0210,-0.0024,-1.0591,-0.043,0.005,-0.183
802787245,0.0234,-0.0034,-1.0576,-0.043,-0.300,0.122
802800245,0.0181,-0.0044,-1.0635,0.079,-0.300,-0.000
802813245,0.0244,-0.0039,-1.0581,0.140,-0.239,0.061
802826245,0.0205,-0.0068,-1.0586,-0.104,-0.239,0.122
802839245,0.0264,-0.0044,-1.0757,0.079,-0.239,-0.000
802852245,0.0186,-0.0059,-1.0635,-0.043,0.067,0.061
802865245,0.0166,-0.0020,-1.0591,-0.165,0.067,0.244
802878245,0.0137,-0.0029,-1.0649,0.018,0.005,0.305
802891245,0.0171,-0.0039,-1.0581,-0.043,0.005,-0.000
802904245,0.0225,-0.0054,-1.0645,0.079,-0.300,-0.000
802917245,0.0166,-0.0049,-1.0659,-0.104,0.067,-0.122
802930245,0.0229,-0.0054,-1.0654,0.018,0.128,-0.183
802943245,0.0181,-0.0005,-1.0669,0.018,-0.239,-0.000
802956245,0.0225,-0.0078,-1.0664,0.079,0.005,0.061
802969245,0.0220,-0.0088,-1.0654,0.201,0.250,-0.000
802982245,0.0210,-0.0034,-1.0605,-0.104,-0.300,-0.000
802995245,0.0166,-0.0049,-1.0625,0.201,-0.361,-0.000
803008245,0.0171,-0.0044,-1.0640,0.018,-0.178,0.244
803021245,0.0239,-0.0073,-1.0654,-0.043,-0.178,-0.000
803034245,0.0215,-0.0088,-1.0684,0.201,-0.117,-0.000
803047245,0.0210,-0.0044,-1.0610,0.140,0.005,-0.000
803060245,0.0200,-0.0054,-1.0610,-0.043,-0.056,-0.122
803073245,0.0215,-0.0020,-1.0610,-0.104,0.067,-0.122
803086245,0.0181,-0.0059,-1.0645,0.079,0.067,-0.183
803099245,0.0190,-0.0059,-1.0630,-0.104,0.005,-0.122
803112245,0.0210,-0.0039,-1.0630,0.079,-0.056,-0.000
803125245,0.0132,-0.0054,-1.0630,0.201,0.005,-0.244
803138245,0.0210,-0.0039,-1.0649,-0.226,-0.117,0.061
803151245,0.0181,-0.0098,-1.0605,0.018,0.005,0.061
803164245,0.0195,-0.0049,-1.0620,-0.349,-0.361,-0.000
803177245,0.0176,-0.0044,-1.0684,0.018,-0.178,-0.183
803190245,0.0220,-0.0020,-1.0669,0.018,-0.178,-0.244
803203245,0.0190,-0.0083,-1.0596,-0.043,0.189,-0.000
803216245,0.0205,-0.0015,-1.0688,0.140,0.372,-0.061
803229245,0.0171,-0.0068,-1.0571,-0.104,-0.239,0.061
803242245,0.0215,-0.0029,-1.0596,0.140,-0.178,-0.061
803255245,0.0176,-0.0044,-1.0645,-0.226,0.067,-0.000
803268245,0.0156,-0.0044,-1.0610,-0.226,-0.422,-0.000
803281245,0.0181,-0.0020,-1.0635,0.079,0.005,0.183
803294245,0.0161,-0.0063,-1.0581,0.079,0.128,0.183
803307245,0.0181,-0.0103,-1.0635,0.201,-0.178,-0.000
803320245,0.0195,-0.0039,-1.0654,0.018,0.005,0.061
803333245,0.0215,-0.0039,-1.0605,-0.043,-0.178,-0.061
803346245,0.0200,-0.0054,-1.0669,-0.043,-0.117,0.061
803359245,0.0176,-0.0034,-1.0620,0.140,-0.178,-0.000
803372245,0.0176,-0.0063,-1.0503,0.140,-0.300,-0.000
803385245,0.0215,-0.0049,-1.0605,-0.043,0.005,0.061
803398245,0.0220,-0.0059,-1.0576,0.140,0.005,-0.061
803411245,0.0161,-0.0059,-1.0620,0.140,-0.117,-0.061
803424245,0.0176,-0.0039,-1.0659,0.079,-0.117,0.122
803437245,0.0166,-0.0059,-1.0640,-0.165,-0.361,-0.061
803450245,0.0171,0.0010,-1.0684,0.079,-0.178,-0.122
803463245,0.0220,0.0010,-1.0601,0.140,0.005,-0.061
803476245,0.0195,-0.0044,-1.0615,0.018,-0.239,-0.061
803489245,0.0190,-0.0063,-1.0713,-0.287,0.067,-0.122
803502245,0.0210,-0.0044,-1.0654,0.018,0.005,-0.061
803515245,0.0215,-0.0049,-1.0625,-0.104,-0.239,-0.122
803528245,0.0200,-0.0093,-1.0654,-0.043,-0.178,0.061
803541245,0.0200,-0.0024,-1.0645,-0.165,0.005,0.061
803554245,0.0186,-0.0073,-1.0630,0.079,-0.056,-0.122
803567245,0.0229,-0.0024,-1.0703,-0.043,0.067,0.061
803580245,0.0200,-0.0059,-1.0674,-0.043,-0.239,0.183
803593245,0.0190,-0.0059,-1.0557,-0.226,-0.117,-0.000
803606245,0.0205,-0.0049,-1.0649,-0.226,-0.239,0.122
803619245,0.0156,-0.0044,-1.0645,-0.165,-0.056,-0.061
803632245,0.0195,-0.0024,-1.0552,0.079,-0.178,0.061
803645245,0.0195,-0.0073,-1.0649,0.140,-0.117,0.061
803658245,0.0166,-0.0078,-1.0659,-0.104,0.005,-0.000
803671245,0.0195,-0.0059,-1.0649,-0.043,0.128,-0.244
803684245,0.0161,-0.0024,-1.0708,-0.043,-0.178,-0.122
803697245,0.0181,-0.0044,-1.0581,-0.287,0.128,-0.000
803710245,0.0225,-0.0044,-1.0605,-0.043,-0.117,0.122
803723245,0.0171,-0.0034,-1.0581,0.079,-0.178,-0.061
803736245,0.0210,-0.0068,-1.0645,-0.104,-0.056,0.122
803749245,0.0171,-0.0020,-1.0635,-0.165,-0.178,-0.122
803762245,0.0225,-0.0083,-1.0615,-0.104,-0.117,-0.122
803775245,0.0181,-0.0073,-1.0522,0.079,-0.056,0.061
803788245,0.0225,0.0054,-1.0737,-0.593,0.311,0.244
803801245,0.0142,-0.0068,-1.0562,0.140,-0.117,0.061
803814245,0.0195,-0.0049,-1.0718,-0.287,-0.361,-0.000
803827245,0.0151,-0.0024,-1.0576,-0.104,-0.483,-0.183
803840245,0.0166,-0.0059,-1.0591,0.140,0.067,-0.000
803853245,0.0215,-0.0059,-1.0728,0.140,0.005,0.061
803866245,0.0200,-0.0039,-1.0635,0.018,0.005,0.061
803879245,0.0171,-0.0073,-1.0620,0.018,0.128,0.244
803892245,0.0190,-0.0015,-1.0645,0.140,-0.117,0.061
803905245,0.0151,-0.0039,-1.0688,-0.104,-0.300,-0.000
803918245,0.0171,-0.0049,-1.0688,0.201,-0.300,0.183
803931245,0.0156,-0.0063,-1.0625,-0.287,-0.178,-0.000
803944245,0.0234,-0.0059,-1.0679,0.079,-0.117,-0.061
803957245,0.0176,-0.0078,-1.0630,-0.043,0.311,0.183
803970245,0.0215,-0.0034,-1.0674,-0.104,0.067,0.366
803983245,0.0151,-0.0024,-1.0581,-0.043,-0.178,-0.000
803996245,0.0220,-0.0068,-1.0693,0.140,0.005,-0.000
804009245,0.0181,-0.0039,-1.0601,-0.043,-0.300,-0.061
804022245,0.0249,-0.0034,-1.0693,0.079,0.128,-0.183
804035245,0.0186,-0.0049,-1.0591,-0.104,-0.178,0.061
804048245,0.0190,-0.0029,-1.0698,-0.104,0.067,0.061
804061245,0.0244,-0.0098,-1.0630,0.018,0.067,0.061
804074245,0.0220,-0.0049,-1.0693,-0.226,0.067,0.061
804087245,0.0205,-0.0044,-1.0684,0.079,0.067,0.061
804100245,0.0190,-0.0088,-1.0586,-0.104,-0.056,0.061
804113245,0.0200,-0.0034,-1.0688,-0.043,0.005,-0.183
804126245,0.0181,-0.0039,-1.0669,0.079,0.067,-0.061
804139245,0.0229,-0.0029,-1.0591,0.018,0.067,0.122
804152245,0.0200,-0.0063,-1.0684,-0.165,0.189,0.122
804165245,0.0225,-0.0010,-1.0718,0.201,0.067,-0.183
804178245,0.0132,-0.0078,-1.0659,0.079,-0.056,-0.122
804191245,0.0195,-0.0039,-1.0625,0.018,0.005,0.122
804204245,0.0186,-0.0068,-1.0552,-0.104,0.067,0.122
804217245,0.0225,-0.0024,-1.0625,0.018,0.067,0.061
804230245,0.0186,-0.0054,-1.0659,0.079,-0.056,-0.122
804243245,0.0190,-0.0039,-1.0552,0.140,-0.178,0.122
804256245,0.0176,-0.0049,-1.0586,-0.104,-0.117,0.122
804269245,0.0234,-0.0020,-1.0635,0.018,0.067,0.061
804282245,0.0195,-0.0049,-1.0645,0.140,0.067,0.122
804295245,0.0181,-0.0049,-1.0649,-0.043,-0.300,0.061
804308245,0.0181,-0.0029,-1.0659,-0.104,-0.239,0.122
804321245,0.0210,-0.0078,-1.0669,-0.043,0.067,0.061
804334245,0.0190,-0.0049,-1.0640,-0.104,-0.117,0.061
804347245,0.0186,-0.0010,-1.0635,0.018,0.067,-0.061
804360245,0.0200,0.0000,-1.0625,-0.165,-0.056,0.183
804373245,0.0220,0.0000,-1.0649,-0.165,0.005,-0.122
804386245,0.0127,-0.0088,-1.0630,0.018,0.067,0.061
804399245,0.0210,-0.0054,-1.0674,-0.043,-0.178,0.122
804412245,0.0190,-0.0039,-1.0601,0.323,-0.178,0.061
804425245,0.0181,-0.0044,-1.0669,0.018,0.067,-0.122
804438245,0.0190,-0.0083,-1.0605,0.140,-0.056,0.183
804451245,0.0190,-0.0088,-1.0649,-0.104,0.005,-0.000
804464245,0.0151,-0.0059,-1.0693,-0.104,0.005,-0.000
804477245,0.0195,-0.0034,-1.0596,0.018,0.189,-0.244
804490245,0.0186,-0.0024,-1.0615,0.079,-0.239,-0.122
804503245,0.0220,-0.0049,-1.0620,0.140,-0.178,-0.122
804516245,0.0215,-0.0083,-1.0654,-0.104,-0.117,-0.000
804529245,0.0220,-0.0054,-1.0708,0.079,0.128,-0.061
804542245,0.0195,-0.0059,-1.0610,-0.104,0.128,-0.061
804555245,0.0166,-0.0034,-1.0679,-0.104,0.005,-0.000
804568245,0.0176,-0.0049,-1.0708,-0.043,-0.178,0.122
804581245,0.0225,-0.0049,-1.0610,-0.043,-0.178,-0.183
804594245,0.0181,-0.0054,-1.0630,0.201,-0.117,-0.000
804607245,0.0137,-0.0029,-1.0645,0.018,0.005,0.061
804620245,0.0190,-0.0020,-1.0615,0.018,-0.056,-0.061
804633245,0.0186,-0.0054,-1.0654,0.018,-0.178,-0.000
804646245,0.0200,-0.0068,-1.0664,-0.165,-0.056,0.122
804659245,0.0210,-0.0078,-1.0610,-0.043,-0.239,-0.122
804672245,0.0195,-0.0039,-1.0635,-0.043,-0.239,-0.000
804685245,0.0190,-0.0049,-1.0615,0.079,-0.178,-0.000
804698245,0.0195,-0.0015,-1.0703,-0.287,-0.056,0.183
804711245,0.0200,-0.0063,-1.0630,0.079,0.067,0.061
804724245,0.0210,-0.0063,-1.0649,0.262,0.128,-0.183
804737245,0.0210,-0.0068,-1.0688,-0.165,-0.361,-0.061
804750245,0.0181,-0.0020,-1.0713,0.079,0.067,-0.000
804763245,0.0195,-0.0034,-1.0586,0.018,-0.239,0.061
804776245,0.0210,-0.0044,-1.0659,0.018,-0.239,-0.061
804789245,0.0205,-0.0034,-1.0640,-0.043,-0.178,-0.061
804802245,0.0205,-0.0068,-1.0620,0.140,-0.056,-0.000
804815245,0.0176,-0.0088,-1.0669,0.201,0.005,-0.122
804828245,0.0176,-0.0054,-1.0708,0.018,0.067,-0.061
804841245,0.0195,-0.0059,-1.0645,-0.165,-0.178,-0.000
804854245,0.0215,-0.0029,-1.0527,0.018,-0.178,-0.000
804867245,0.0044,-0.0181,-1.0728,0.323,-0.117,-0.122
804880245,0.0239,-0.0088,-1.0815,0.689,0.128,0.061
804893245,0.0244,-0.0005,-1.0386,-0.349,0.067,-0.000
804906245,0.0215,-0.0020,-1.0581,-0.287,-0.117,-0.000
804919245,0.0137,-0.0063,-1.0576,0.262,-0.178,0.244
804932245,0.0161,-0.0044,-1.0703,-0.226,0.128,0.183
804945245,0.0225,-0.0039,-1.0625,-0.043,-0.178,0.122
804958245,0.0190,-0.0039,-1.0693,0.201,0.067,0.183
804971245,0.0195,-0.0063,-1.0596,0.079,0.067,0.061
804984245,0.0161,-0.0073,-1.0649,-0.104,0.005,-0.061
804997245,0.0156,-0.0068,-1.0640,-0.043,-0.117,-0.061
805010245,0.0205,-0.0039,-1.0630,0.079,0.250,-0.000
805023245,0.0225,-0.0044,-1.0684,-0.043,-0.361,0.244
805036245,0.0200,-0.0059,-1.0625,0.140,0.005,-0.061
805049245,0.0176,-0.0068,-1.0620,0.018,-0.239,0.061
805062245,0.0195,-0.0063,-1.0649,-0.226,-0.056,0.122
805075245,0.0210,-0.0044,-1.0605,-0.043,-0.300,0.122
805088245,0.0225,-0.0054,-1.0674,0.018,0.128,-0.000
805101245,0.0200,-0.0034,-1.0664,-0.043,-0.178,0.122
805114245,0.0205,-0.0059,-1.0684,-0.104,-0.056,-0.122
805127245,0.0225,-0.0068,-1.0630,-0.043,-0.178,0.061
805140245,0.0200,-0.0049,-1.0649,-0.043,0.189,0.061
805153245,0.0166,-0.0063,-1.0645,0.079,-0.300,-0.000
805166245,0.0200,-0.0044,-1.0605,0.140,-0.117,0.122
805179245,0.0186,-0.0078,-1.0649,0.018,0.067,-0.122
805192245,0.0210,-0.0029,-1.0645,0.018,0.189,0.061
805205245,0.0200,-0.0049,-1.0625,0.079,-0.178,-0.061
805218245,0.0186,-0.0054,-1.0718,-0.165,0.128,0.122
805231245,0.0190,-0.0063,-1.0586,0.140,-0.056,0.122
805244245,0.0229,-0.0068,-1.0596,0.140,-0.056,-0.000
805257245,0.0249,-0.0059,-1.0620,0.201,-0.056,-0.244
805270245,0.0166,-0.0054,-1.0664,0.140,-0.178,-0.000
805283245,0.0186,-0.0024,-1.0630,-0.165,0.005,-0.122
805296245,0.0225,-0.0063,-1.0620,0.201,0.067,-0.000
805309245,0.0190,-0.0005,-1.0654,0.140,0.067,-0.000
805322245,0.0239,-0.0068,-1.0659,-0.165,-0.178,0.061
805335245,0.0181,-0.0073,-1.0684,0.079,0.067,-0.122
805348245,0.0190,-0.0015,-1.0615,0.079,0.005,-0.000
805361245,0.0171,-0.0020,-1.0723,0.079,-0.178,0.122
805374245,0.0195,-0.0010,-1.0610,-0.043,-0.239,-0.122
805387245,0.0151,-0.0039,-1.0605,0.262,-0.117,-0.061
805400245,0.0210,-0.0034,-1.0625,-0.043,0.067,0.122
805413245,0.0210,-0.0063,-1.0620,0.018,0.005,0.122
805426245,0.0176,-0.0054,-1.0645,-0.043,0.067,0.244
805439245,0.0210,-0.0063,-1.0601,0.201,0.128,0.305
805452245,0.0190,-0.0044,-1.0620,-0.104,0.005,-0.122
805465245,0.0229,-0.0024,-1.0669,0.018,-0.178,0.183
805478245,0.0151,-0.0034,-1.0684,0.018,0.128,0.244
805491245,0.0186,-0.0049,-1.0698,-0.104,-0.178,0.122
805504245,0.0161,-0.0010,-1.0562,-1.752,1.348,-0.489
805517245,-0.0444,-0.0503,-1.0718,-3.095,-8.906,-0.427
805530245,0.0005,-0.0107,-1.0371,-0.837,-1.826,-0.244
805543245,0.0034,-0.0068,-1.0439,-0.654,-3.779,0.122
805556245,0.0249,-0.0117,-1.0679,0.201,-1.581,-0.061
805569245,0.0161,-0.0063,-1.0669,0.262,-1.154,-0.000
805582245,0.0200,-0.0078,-1.0698,0.384,0.433,-0.183
805595245,0.0312,-0.0063,-1.0796,0.628,-1.337,-0.000
805608245,0.0269,-0.0078,-1.0664,0.445,-0.727,0.122
805621245,0.0190,-0.0059,-1.0610,0.445,-0.422,0.061
805634245,0.0293,-0.0063,-1.0693,0.445,-0.849,0.183
805647245,0.0249,-0.0039,-1.0630,0.201,-0.239,-0.061
805660245,0.0205,-0.0049,-1.0703,0.140,0.067,0.183
805673245,0.0176,-0.0039,-1.0615,0.018,0.128,-0.122
805686245,0.0239,-0.0078,-1.0610,0.018,-0.361,0.061
805699245,0.0225,-0.0078,-1.0664,0.262,0.005,-0.000
805712245,0.0225,-0.0024,-1.0625,-0.043,0.067,-0.061
805725245,0.0239,-0.0049,-1.0625,-0.104,-0.178,-0.000
805738245,0.0220,-0.0039,-1.0620,-0.043,0.005,-0.122
805751245,0.0244,-0.0068,-1.0654,0.262,-0.056,-0.122
805764245,0.0337,0.0029,-1.0767,-2.424,1.470,0.244
805777245,0.0269,-0.0073,-1.0752,-1.020,2.325,0.610
805790245,0.0225,-0.0024,-1.0708,-0.898,1.165,0.488
805803245,0.0288,-0.0029,-1.0630,-3.400,6.292,1.648
805816245,0.0088,-0.0107,-1.0581,-1.386,2.874,1.098
805829245,0.0161,-0.0088,-1.0635,-0.165,0.433,0.488
805842245,0.0190,-0.0078,-1.0688,0.018,0.311,0.366
805855245,0.0229,-0.0054,-1.0586,0.018,0.128,0.732
805868245,0.0200,-0.0039,-1.0601,-0.165,0.005,0.976
805881245,0.0205,-0.0117,-1.0601,-0.654,-0.239,1.953
805894245,0.0112,-0.0049,-1.0640,-0.349,0.189,2.075
805907245,0.0176,-0.0068,-1.0703,-0.165,0.433,0.915
805920245,0.0200,-0.0068,-1.0708,-0.349,0.067,0.549
805933245,0.0220,-0.0098,-1.0684,-0.226,0.189,0.122
805946245,0.0181,-0.0044,-1.0669,-0.104,0.189,0.122
805959245,0.0190,-0.0059,-1.0752,-0.104,-0.300,0.061
805972245,0.0161,-0.0098,-1.0664,0.140,-0.117,0.183
805985245,0.0176,-0.0044,-1.0625,0.384,-0.422,0.244
805998245,0.0166,-0.0078,-1.0649,0.445,-0.483,0.244
806011245,0.0215,-0.0088,-1.0596,0.506,-0.422,0.732
806024245,0.0269,-0.0103,-1.0713,0.384,-0.727,1.098
806037245,0.0127,-0.0093,-1.0640,0.384,-0.300,-0.000
806050245,0.0195,-0.0059,-1.0640,0.506,-0.300,-0.061
806063245,0.0146,-0.0122,-1.0562,0.323,-0.544,-0.122
806076245,0.0166,-0.0098,-1.0610,0.445,-0.666,0.122
806089245,0.0215,-0.0029,-1.0640,0.689,-0.422,-0.000
806102245,0.0215,-0.0117,-1.0532,0.811,-0.483,-0.122
806115245,0.0205,-0.0034,-1.0664,0.323,-0.483,0.183
806128245,0.0161,-0.0083,-1.0649,-0.043,-0.300,0.122
806141245,0.0195,-0.0049,-1.0674,0.201,0.005,0.061
806154245,0.0205,-0.0054,-1.0625,-0.043,-0.117,-0.000
806167245,0.0225,-0.0073,-1.0645,0.018,-0.117,0.061
806180245,0.0186,-0.0049,-1.0674,0.140,-0.117,-0.122
806193245,0.0225,-0.0068,-1.0679,0.079,-0.178,0.061
806206245,0.0186,-0.0049,-1.0649,-0.043,0.067,-0.061
806219245,0.0186,-0.0039,-1.0679,0.201,0.005,-0.000
806232245,0.0186,-0.0039,-1.0625,0.140,-0.117,0.183
806245245,0.0190,-0.0098,-1.0635,-0.104,0.005,-0.122
806258245,0.0171,-0.0068,-1.0713,0.079,-0.300,0.183
806271245,0.0239,-0.0039,-1.0596,0.079,-0.117,0.061
806284245,0.0176,-0.0068,-1.0674,0.018,-0.178,0.061
806297245,0.0225,-0.0054,-1.0630,0.079,-0.178,-0.061
806310245,0.0244,-0.0063,-1.0723,0.018,-0.056,0.061
806323245,0.0186,-0.0029,-1.0703,-0.226,0.005,-0.000
806336245,0.0171,-0.0054,-1.0620,0.079,-0.056,-0.000
806349245,0.0205,-0.0049,-1.0571,0.079,0.128,-0.061
806362245,0.0210,-0.0073,-1.0693,-0.043,-0.117,-0.061
806375245,0.0176,-0.0039,-1.0615,-0.104,-0.117,-0.122
806388245,0.0229,-0.0034,-1.0645,-0.104,0.067,-0.000
806401245,0.0205,-0.0078,-1.0630,0.201,-0.239,-0.061
806414245,0.0195,-0.0059,-1.0728,-0.104,0.005,-0.000
806427245,0.0210,-0.0054,-1.0610,0.079,-0.117,0.122
806440245,0.0195,-0.0044,-1.0620,-0.226,0.067,-0.000
806453245,0.0166,-0.0088,-1.0581,0.018,-0.117,0.122
806466245,0.0181,-0.0044,-1.0630,-0.104,0.067,-0.183
806479245,0.0210,-0.0049,-1.0654,0.201,-0.056,-0.000
806492245,0.0176,-0.0044,-1.0610,0.140,-0.056,-0.000
806505245,0.0171,-0.0083,-1.0591,-0.226,-0.178,-0.244
806518245,0.0195,-0.0063,-1.0625,0.079,-0.056,0.122
806531245,0.0176,-0.0059,-1.0571,0.079,-0.117,-0.000
806544245,0.0220,-0.0073,-1.0693,-0.226,0.128,0.305
806557245,0.0151,-0.0034,-1.0654,0.018,-0.117,-0.122
806570245,0.0220,-0.0034,-1.0684,0.079,-0.178,-0.061
806583245,0.0239,-0.0029,-1.0723,0.079,-0.239,-0.061
806596245,0.0234,-0.0054,-1.0630,0.079,-0.239,0.122
806609245,0.0132,-0.0073,-1.0703,-0.226,0.067,-0.305
806622245,0.0161,-0.0068,-1.0630,0.018,-0.361,-0.000
806635245,0.0205,-0.0068,-1.0620,0.140,-0.178,-0.000
806648245,0.0195,-0.0083,-1.0615,-0.104,0.067,0.183
806661245,0.0190,-0.0107,-1.0659,-0.043,-0.056,-0.305
806674245,0.0181,-0.0122,-1.0586,-0.287,-0.117,-0.000
806687245,0.0181,-0.0034,-1.0635,-0.165,0.005,-0.061
806700245,0.0229,-0.0059,-1.0693,-0.104,-0.056,0.061
806713245,0.0166,-0.0049,-1.0703,0.018,-0.178,0.061
806726245,0.0220,-0.0034,-1.0571,-0.043,0.005,0.122
806739245,0.0225,-0.0049,-1.0654,-0.104,-0.056,0.122
806752245,0.0200,-0.0059,-1.0596,0.018,-0.056,-0.000
806765245,0.0215,-0.0088,-1.0659,-0.043,-0.117,0.122
806778245,0.0205,-0.0098,-1.0669,-0.043,0.005,0.061
806791245,0.0244,-0.0073,-1.0630,0.079,0.067,-0.183
806804245,0.0200,-0.0054,-1.0645,0.018,0.005,0.183
806817245,0.0200,-0.0093,-1.0649,0.140,0.005,0.061
806830245,0.0229,-0.0049,-1.0649,-0.165,-0.300,0.122
806843245,0.0220,-0.0063,-1.0620,-0.165,0.005,-0.000
806856245,0.0176,-0.0059,-1.0615,0.079,-0.056,0.061
806869245,0.0229,-0.0059,-1.0630,0.018,-0.056,0.061
806882245,0.0195,-0.0088,-1.0645,0.018,0.005,0.244
806895245,0.0190,-0.0078,-1.0659,-0.349,0.067,0.122
806908245,0.0156,-0.0063,-1.0640,-0.165,0.005,0.061
806921245,0.0171,-0.0054,-1.0708,-0.104,0.005,-0.000
806934245,0.0195,-0.0049,-1.0625,0.018,-0.056,-0.061
806947245,0.0200,-0.0054,-1.0649,0.018,0.067,-0.122
806960245,0.0151,-0.0063,-1.0601,0.201,0.067,-0.122
806973245,0.0166,-0.0039,-1.0645,0.079,0.005,-0.122
806986245,0.0161,-0.0039,-1.0635,-0.104,-0.056,0.061
806999245,0.0200,-0.0059,-1.0605,0.018,0.005,0.061
807012245,0.0186,-0.0054,-1.0645,0.079,-0.483,0.061
807025245,0.0161,-0.0024,-1.0645,0.140,0.128,-0.000
807038245,0.0205,-0.0068,-1.0698,-0.043,-0.300,-0.061
807051245,0.0259,-0.0054,-1.0605,0.140,-0.117,0.122
807064245,0.0161,-0.0044,-1.0645,0.079,-0.178,-0.061
807077245,0.0220,-0.0049,-1.0659,0.018,-0.056,-0.122
807090245,0.0220,-0.0068,-1.0649,-0.104,-0.117,-0.000
807103245,0.0200,-0.0088,-1.0581,-0.165,0.067,-0.122
807116245,0.0200,-0.0029,-1.0688,0.018,0.311,-0.122
807129245,0.0205,-0.0059,-1.0640,-0.043,0.128,-0.000
807142245,0.0210,-0.0083,-1.0591,0.201,0.067,0.244
807155245,0.0186,-0.0049,-1.0630,0.079,-0.117,-0.061
807168245,0.0195,-0.0034,-1.0679,-0.104,0.067,-0.061
807181245,0.0210,-0.0063,-1.0703,0.079,-0.178,-0.244
807194245,0.0200,-0.0078,-1.0688,-0.165,-0.056,0.061
807207245,0.0186,-0.0024,-1.0693,0.262,-0.239,0.061
807220245,0.0176,-0.0063,-1.0625,-0.104,-0.178,0.061
807233245,0.0200,-0.0063,-1.0581,-0.165,-0.117,-0.061
807246245,0.0195,-0.0054,-1.0698,0.079,-0.178,0.183
807259245,0.0137,-0.0039,-1.0654,0.079,-0.117,-0.061
807272245,0.0215,-0.0049,-1.0640,-0.226,0.005,-0.000
807285245,0.0210,-0.0015,-1.0576,-0.104,-0.117,-0.061
807298245,0.0215,-0.0034,-1.0601,-0.104,0.189,-0.000
807311245,0.0171,-0.0044,-1.0674,0.079,0.067,0.183
807324245,0.0225,-0.0044,-1.0654,-0.043,-0.056,0.244
807337245,0.0215,-0.0054,-1.0630,0.140,0.005,-0.000
807350245,0.0210,-0.0054,-1.0679,-0.043,-0.239,0.244
807363245,0.0195,-0.0034,-1.0610,-0.043,-0.117,-0.122
807376245,0.0181,-0.0073,-1.0659,0.079,-0.056,0.122
807389245,0.0210,-0.0112,-1.0605,0.140,0.067,0.061
807402245,0.0186,-0.0049,-1.0674,0.018,-0.056,-0.061
807415245,0.0195,-0.0083,-1.0586,0.018,-0.056,0.122
807428245,0.0190,-0.0068,-1.0679,-0.043,-0.117,-0.122
807441245,0.0210,-0.0049,-1.0674,-0.226,-0.117,-0.000
807454245,0.0171,-0.0063,-1.0684,-0.165,0.005,-0.000
807467245,0.0171,-0.0063,-1.0571,-0.043,-0.117,0.061
807480245,0.0181,-0.0098,-1.0723,-0.043,-0.300,-0.061
807493245,0.0181,-0.0059,-1.0586,0.018,0.005,0.183
807506245,0.0234,-0.0054,-1.0684,-0.043,-0.056,0.122
807519245,0.0137,-0.0068,-1.0645,0.079,0.128,0.244
807532245,0.0186,-0.0093,-1.0679,-0.043,-0.056,0.122
807545245,0.0195,-0.0063,-1.0576,0.018,-0.239,-0.183
807558245,0.0171,-0.0054,-1.0664,-0.165,0.128,-0.183
807571245,0.0186,-0.0063,-1.0640,-0.043,0.128,0.061
807584245,0.0195,-0.0020,-1.0625,-0.165,0.189,-0.122
807597245,0.0220,-0.0068,-1.0674,0.018,-0.056,0.183
807610245,0.0244,-0.0044,-1.0654,-0.043,-0.178,-0.000
807623245,0.0186,-0.0093,-1.0547,0.140,0.005,-0.183
807636245,0.0229,-0.0063,-1.0664,0.079,0.005,-0.122
807649245,0.0137,-0.0054,-1.0669,0.018,-0.239,0.122
807662245,0.0176,-0.0063,-1.0596,0.018,-0.117,-0.122
807675245,0.0181,-0.0088,-1.0625,0.140,-0.056,-0.000
807688245,0.0220,-0.0029,-1.0615,-0.104,0.067,0.183
807701245,0.0146,-0.0098,-1.0640,-0.165,0.128,-0.122
807714245,0.0137,-0.0044,-1.0591,0.140,-0.178,-0.122
807727245,0.0200,-0.0068,-1.0640,0.262,-0.056,-0.061
807740245,0.0205,-0.0059,-1.0674,-0.043,-0.239,0.122
807753245,0.0200,-0.0034,-1.0596,-0.104,-0.056,0.183
807766245,0.0195,-0.0088,-1.0684,0.018,-0.178,0.122
807779245,0.0229,-0.0068,-1.0601,-0.104,0.067,0.122
807792245,0.0215,-0.0073,-1.0640,0.018,0.005,0.183
807805245,0.0190,-0.0054,-1.0742,-0.165,-0.483,-0.061
807818245,0.0176,-0.0073,-1.0669,0.140,0.005,-0.000
807831245,0.0190,-0.0073,-1.0527,0.140,-0.300,0.183
807844245,0.0161,-0.0063,-1.0586,0.018,-0.056,0.122
807857245,0.0229,-0.0068,-1.0601,0.079,-0.239,-0.122
807870245,0.0234,-0.0049,-1.0654,-0.287,-0.178,-0.000
807883245,0.0186,-0.0068,-1.0649,-0.165,-0.300,0.122
807896245,0.0254,-0.0059,-1.0713,0.018,0.372,0.427
807909245,0.0229,-0.0015,-1.0669,0.018,-0.178,-0.000
807922245,0.0210,-0.0049,-1.0635,0.201,-0.300,-0.061
807935245,0.0225,-0.0078,-1.0664,0.018,-0.178,-0.061
807948245,0.0142,-0.0044,-1.0610,0.079,-0.239,-0.122
807961245,0.0186,-0.0068,-1.0659,0.079,-0.056,0.061
807974245,0.0210,-0.0078,-1.0649,-0.043,0.128,-0.000
807987245,0.0215,-0.0083,-1.0645,0.079,0.250,0.122
808000245,0.0215,-0.0063,-1.0591,-0.165,-0.300,0.244
808013245,0.0239,-0.0063,-1.0654,0.079,0.005,-0.061
808026245,0.0186,-0.0063,-1.0601,0.079,-0.178,-0.000
808039245,0.0215,-0.0024,-1.0635,0.262,0.128,-0.244
808052245,0.0195,-0.0068,-1.0605,0.140,-0.117,0.183
808065245,0.0181,-0.0039,-1.0688,0.018,-0.056,-0.122
808078245,0.0210,-0.0063,-1.0620,0.262,-0.300,0.122
808091245,0.0190,-0.0068,-1.0649,0.018,0.005,0.061
808104245,0.0176,-0.0020,-1.0581,-0.165,-0.178,-0.061
808117245,0.0215,-0.0039,-1.0640,-0.165,-0.056,-0.122
808130245,0.0195,-0.0098,-1.0698,-0.287,-0.178,-0.061
808143245,0.0200,-0.0059,-1.0605,-0.226,-0.056,0.244
808156245,0.0176,-0.0088,-1.0669,-0.165,-0.178,0.122
808169245,0.0190,-0.0063,-1.0630,0.262,0.005,-0.000
808182245,0.0229,-0.0054,-1.0615,0.079,-0.056,0.061
808195245,0.0195,-0.0059,-1.0586,-0.043,0.189,-0.122
808208245,0.0210,-0.0073,-1.0605,-0.226,0.005,0.122
808221245,0.0166,-0.0054,-1.0654,-0.104,0.128,-0.183
808234245,0.0200,-0.0088,-1.0659,0.140,-0.178,-0.000
808247245,0.0210,-0.0054,-1.0654,0.018,-0.239,-0.122
808260245,0.0200,-0.0078,-1.0659,0.262,-0.178,0.061
808273245,0.0176,-0.0068,-1.0732,0.018,-0.056,-0.000
808286245,0.0215,-0.0073,-1.0669,-0.349,-0.178,-0.061
808299245,0.0181,-0.0073,-1.0630,-0.104,-0.178,0.183
808312245,0.0186,-0.0044,-1.0615,0.201,0.067,-0.061
808325245,0.0176,-0.0024,-1.0679,0.018,-0.239,-0.000
808338245,0.0195,-0.0054,-1.0596,0.018,-0.056,-0.061
808351245,0.0225,-0.0049,-1.0674,-0.043,-0.300,-0.061
808364245,0.0186,-0.0034,-1.0625,0.018,-0.056,0.122
808377245,0.0171,-0.0063,-1.0596,0.140,0.067,0.183
808390245,0.0259,-0.0054,-1.0693,-0.226,-0.361,0.122
808403245,0.0166,-0.0059,-1.0669,0.140,0.067,0.366
808416245,0.0215,-0.0059,-1.0688,-0.104,-0.117,-0.122
808429245,0.0205,-0.0093,-1.0596,0.018,-0.178,-0.000
808442245,0.0220,-0.0044,-1.0664,0.079,0.128,0.061
808455245,0.0176,-0.0083,-1.0537,0.201,-0.239,-0.061
808468245,0.0234,-0.0039,-1.0615,0.018,-0.117,-0.122
808481245,0.0210,-0.0054,-1.0615,-0.043,0.005,-0.183
808494245,0.0215,-0.0093,-1.0640,-0.104,-0.056,-0.061
808507245,0.0229,-0.0059,-1.0596,0.140,0.005,0.122
808520245,0.0205,-0.0039,-1.0610,-0.043,0.189,-0.000
808533245,0.0161,-0.0044,-1.0576,0.079,-0.178,-0.122
808546245,0.0181,-0.0049,-1.0713,0.018,-0.178,0.244
808559245,0.0215,-0.0044,-1.0664,-0.349,-0.056,-0.061
808572245,0.0200,-0.0059,-1.0664,0.079,0.128,-0.122
808585245,0.0220,-0.0044,-1.0640,-0.104,-0.117,0.061
808598245,0.0166,-0.0068,-1.0615,-0.043,-0.056,0.061
808611245,0.0176,-0.0044,-1.0625,-0.043,-0.056,-0.000
808624245,0.0225,-0.0083,-1.0669,-0.165,-0.239,-0.061
808637245,0.0181,-0.0059,-1.0640,-0.226,-0.178,-0.122
808650245,0.0200,-0.0078,-1.0674,0.018,-0.117,-0.000
808663245,0.0186,-0.0103,-1.0659,0.140,-0.239,-0.061
808676245,0.0186,-0.0049,-1.0610,-0.043,-0.117,-0.000
808689245,0.0200,-0.0054,-1.0605,-0.287,0.067,0.244
808702245,0.0200,-0.0073,-1.0620,-0.043,-0.056,0.305
808715245,0.0171,-0.0073,-1.0635,0.140,-0.178,-0.183
808728245,0.0176,-0.0068,-1.0669,0.018,0.128,0.122
808741245,0.0195,-0.0039,-1.0581,-0.226,-0.422,-0.122
808754245,0.0176,-0.0068,-1.0605,0.018,0.005,-0.122
808767245,0.0195,-0.0029,-1.0601,-0.043,0.005,-0.183
808780245,0.0215,-0.0068,-1.0581,-0.471,0.005,-0.000
808793245,0.0215,-0.0088,-1.0645,0.079,-0.178,-0.183
808806245,0.0186,-0.0107,-1.0649,-0.043,-0.178,0.061
808819245,0.0190,-0.0083,-1.0630,0.018,-0.422,-0.061
808832245,0.0171,-0.0034,-1.0625,0.018,0.005,0.122
808845245,0.0195,-0.0039,-1.0635,-0.165,-0.117,-0.244
808858245,0.0186,-0.0059,-1.0654,-0.104,0.189,-0.061
808871245,0.0210,-0.0073,-1.0625,-0.165,-0.239,-0.061
808884245,0.0210,-0.0063,-1.0664,-0.165,0.005,0.244
808897245,0.0161,-0.0073,-1.0659,0.018,-0.361,-0.183
808910245,0.0181,-0.0049,-1.0615,0.018,0.005,0.305
808923245,0.0151,-0.0083,-1.0645,-0.043,0.005,-0.061
808936245,0.0190,-0.0088,-1.0630,0.018,0.128,-0.000
808949245,0.0220,-0.0068,-1.0635,0.079,-0.300,-0.000
808962245,0.0195,-0.0068,-1.0640,-0.104,0.067,0.122
808975245,0.0166,-0.0054,-1.0630,0.079,-0.239,0.122
808988245,0.0210,-0.0044,-1.0688,0.018,0.005,-0.000
809001245,0.0186,-0.0059,-1.0532,-0.165,-0.117,0.061
809014245,0.0229,-0.0044,-1.0625,0.140,0.005,-0.061
809027245,0.0225,-0.0049,-1.0654,-0.043,-0.300,-0.122
809040245,0.0215,-0.0083,-1.0640,-0.165,0.005,0.122
809053245,0.0220,-0.0093,-1.0625,-0.104,0.189,-0.000
809066245,0.0190,-0.0068,-1.0571,0.018,0.067,-0.305
809079245,0.0200,-0.0039,-1.0625,-0.104,-0.178,0.061
809092245,0.0181,-0.0098,-1.0654,-0.043,0.128,-0.000
809105245,0.0195,-0.0054,-1.0610,-0.165,-0.178,-0.061
809118245,0.0176,-0.0039,-1.0625,0.079,-0.056,0.122
809131245,0.0176,-0.0054,-1.0625,-0.043,0.067,0.061
809144245,0.0200,-0.0063,-1.0645,-0.043,-0.178,0.061
809157245,0.0220,-0.0078,-1.0654,-0.043,0.005,-0.000
809170245,0.0215,-0.0098,-1.0615,-0.043,-0.056,-0.061
809183245,0.0166,-0.0063,-1.0610,0.018,0.128,0.366
809196245,0.0176,-0.0059,-1.0630,-0.104,0.067,-0.183
809209245,0.0190,-0.0088,-1.0625,0.079,0.067,-0.183
809222245,0.0215,-0.0059,-1.0601,0.079,0.311,0.061
809235245,0.0225,-0.0044,-1.0635,0.079,0.067,-0.000
809248245,0.0176,-0.0039,-1.0625,-0.043,-0.056,-0.061
809261245,0.0225,-0.0073,-1.0674,-0.043,0.005,0.122
809274245,0.0190,-0.0088,-1.0605,0.079,-0.117,-0.000
809287245,0.0195,-0.0029,-1.0615,0.079,-0.178,0.122
809300245,0.0186,-0.0063,-1.0635,-0.043,0.005,-0.000
809313245,0.0210,-0.0068,-1.0586,-0.043,-0.117,-0.000
809326245,0.0210,-0.0054,-1.0630,0.018,-0.239,0.122
809339245,0.0176,-0.0044,-1.0693,0.079,-0.117,-0.122
809352245,0.0146,-0.0020,-1.0688,0.079,-0.056,-0.183
809365245,0.0161,-0.0059,-1.0615,0.140,0.005,0.061
809378245,0.0205,-0.0073,-1.0684,0.140,0.067,0.061
809391245,0.0176,-0.0059,-1.0625,-0.410,0.128,-0.183
809404245,0.0190,-0.0083,-1.0615,0.079,0.005,0.061
809417245,0.0186,-0.0068,-1.0649,-0.104,0.005,0.061
809430245,0.0161,-0.0039,-1.0703,0.079,0.005,-0.183
809443245,0.0186,-0.0068,-1.0688,0.140,0.189,0.122
809456245,0.0190,-0.0049,-1.0615,-0.043,0.128,0.061
809469245,0.0171,-0.0029,-1.0674,0.140,0.005,-0.061
809482245,0.0195,-0.0059,-1.0654,-0.287,-0.300,-0.061
809495245,0.0220,-0.0059,-1.0605,-0.287,-0.178,0.122
809508245,0.0215,-0.0059,-1.0610,-0.043,-0.178,-0.183
809521245,0.0220,-0.0049,-1.0571,0.018,-0.239,0.183
809534245,0.0200,-0.0088,-1.0688,0.018,0.067,-0.000
809547245,0.0215,-0.0029,-1.0698,-0.043,-0.117,-0.000
809560245,0.0220,-0.0034,-1.0640,0.018,-0.178,-0.000
809573245,0.0254,-0.0024,-1.0645,0.018,0.128,0.122
809586245,0.0176,-0.0039,-1.0581,-0.104,0.005,0.061
809599245,0.0181,-0.0049,-1.0586,0.079,0.128,-0.244
809612245,0.0210,-0.0103,-1.0688,-0.043,0.005,-0.061
809625245,0.0229,-0.0054,-1.0649,-0.104,0.005,-0.122
809638245,0.0200,-0.0068,-1.0620,0.018,-0.056,-0.183
809651245,0.0190,-0.0044,-1.0654,-0.043,-0.117,-0.122
809664245,0.0210,-0.0054,-1.0640,0.018,-0.056,-0.122
809677245,0.0161,-0.0083,-1.0625,-0.104,-0.239,0.061
809690245,0.0195,-0.0073,-1.0635,0.140,-0.056,0.061
809703245,0.0186,-0.0039,-1.0684,0.018,0.005,-0.000
809716245,0.0234,-0.0078,-1.0625,-0.043,-0.117,-0.000
809729245,0.0205,-0.0068,-1.0586,0.018,-0.056,-0.122
809742245,0.0176,-0.0083,-1.0610,0.079,-0.117,-0.061
809755245,0.0195,-0.0068,-1.0635,0.079,-0.178,-0.061
809768245,0.0200,-0.0098,-1.0605,-0.165,-0.056,-0.000
809781245,0.0176,-0.0034,-1.0571,0.079,0.067,-0.000
809794245,0.0181,-0.0063,-1.0664,-0.104,0.005,0.183
809807245,0.0205,-0.0078,-1.0723,-0.165,0.128,-0.061
809820245,0.0195,-0.0068,-1.0659,0.079,0.005,-0.000
809833245,0.0176,-0.0039,-1.0620,0.018,0.005,-0.061
809846245,0.0195,-0.0054,-1.0630,-0.104,-0.056,0.061
809859245,0.0215,-0.0068,-1.0679,-0.104,0.067,-0.061
809872245,0.0176,-0.0059,-1.0684,0.079,0.189,-0.122
809885245,0.0195,-0.0073,-1.0596,0.140,0.189,0.061
809898245,0.0205,-0.0059,-1.0688,-0.043,0.005,-0.000
809911245,0.0166,-0.0049,-1.0669,-0.104,0.128,0.244
809924245,0.0205,-0.0083,-1.0562,0.018,-0.117,-0.061
809937245,0.0215,-0.0083,-1.0718,-0.226,0.189,0.061
809950245,0.0156,-0.0039,-1.0576,0.201,-0.117,0.061
809963245,0.0181,-0.0049,-1.0664,-0.165,-0.117,-0.061
809976245,0.0220,-0.0044,-1.0684,0.079,0.128,-0.183
809989245,0.0176,-0.0005,-1.0640,-0.287,-0.056,0.183
810002245,0.0200,-0.0098,-1.0654,-0.043,-0.056,0.061
810015245,0.0220,-0.0078,-1.0635,-0.043,0.067,-0.061
810028245,0.0171,-0.0093,-1.0635,0.079,0.005,-0.000
810041245,0.0166,-0.0068,-1.0728,0.018,-0.300,-0.183
810054245,0.0205,-0.0034,-1.0601,-0.043,-0.056,0.183
810067245,0.0195,-0.0039,-1.0620,-0.104,0.005,0.061
810080245,0.0186,-0.0073,-1.0654,-0.104,0.067,-0.061
810093245,0.0225,-0.0049,-1.0620,-0.043,-0.056,0.061
810106245,0.0190,-0.0078,-1.0630,0.140,-0.056,0.061
810119245,0.0210,-0.0063,-1.0601,0.018,-0.117,0.122
810132245,0.0171,-0.0083,-1.0615,-0.165,0.005,0.122
810145245,0.0176,-0.0093,-1.0571,-0.104,-0.117,-0.122
810158245,0.0181,-0.0068,-1.0581,-0.104,-0.239,-0.061
810171245,0.0186,-0.0073,-1.0654,0.201,-0.056,-0.061
810184245,0.0210,-0.0078,-1.0654,0.201,0.128,-0.061
810197245,0.0181,-0.0059,-1.0703,-0.165,0.005,0.061
810210245,0.0176,-0.0034,-1.0640,0.140,-0.178,-0.061
810223245,0.0166,-0.0103,-1.0718,-0.165,0.128,0.244
810236245,0.0200,-0.0049,-1.0571,0.018,-0.178,-0.122
810249245,0.0195,-0.0068,-1.0596,-0.165,-0.056,-0.122
810262245,0.0176,-0.0039,-1.0649,0.018,0.005,0.061
810275245,0.0181,-0.0088,-1.0654,-0.349,-0.117,-0.000
810288245,0.0171,-0.0068,-1.0674,0.201,-0.178,0.061
810301245,0.0166,-0.0059,-1.0679,0.140,0.128,0.122
810314245,0.0171,-0.0054,-1.0698,0.201,0.189,0.305
810327245,0.0229,-0.0078,-1.0596,-0.226,0.067,0.183
810340245,0.0176,-0.0039,-1.0679,0.079,-0.117,0.061
810353245,0.0195,-0.0078,-1.0649,-0.104,-0.178,0.061
810366245,0.0210,-0.0078,-1.0630,-0.226,-0.117,0.122
810379245,0.0220,-0.0054,-1.0610,0.140,0.005,0.122
810392245,0.0229,-0.0054,-1.0635,0.140,0.005,-0.305
810405245,0.0215,-0.0049,-1.0630,0.079,0.067,-0.000
810418245,0.0171,-0.0073,-1.0659,0.018,-0.117,-0.061
810431245,0.0146,-0.0068,-1.0605,-0.043,0.067,0.061
810444245,0.0210,-0.0039,-1.0664,-0.226,-0.117,-0.183
810457245,0.0205,-0.0083,-1.0610,-0.165,0.005,-0.122
810470245,0.0239,-0.0063,-1.0664,-0.043,0.005,0.061
810483245,0.0220,-0.0088,-1.0698,0.079,-0.056,0.183
810496245,0.0171,-0.0044,-1.0630,0.140,0.005,-0.122
810509245,0.0215,-0.0054,-1.0654,-0.043,-0.056,-0.183
810522245,0.0176,-0.0073,-1.0615,-0.104,0.067,0.183
810535245,0.0210,-0.0044,-1.0635,0.140,-0.300,0.061
810548245,0.0215,-0.0107,-1.0664,-0.104,0.005,-0.000
810561245,0.0215,-0.0068,-1.0684,-0.043,-0.239,-0.000
810574245,0.0190,-0.0044,-1.0605,-0.104,0.005,0.061
810587245,0.0181,-0.0083,-1.0688,-0.226,-0.117,0.061
810600245,0.0181,-0.0063,-1.0659,0.079,0.067,0.183
810613245,0.0195,-0.0078,-1.0674,-0.043,-0.239,0.061
810626245,0.0195,-0.0059,-1.0596,-0.165,0.067,0.183
810639245,0.0225,-0.0010,-1.0654,0.140,0.005,-0.244
810652245,0.0200,-0.0054,-1.0688,-0.104,0.005,-0.000
810665245,0.0225,-0.0049,-1.0659,-0.043,0.189,-0.000
810678245,0.0161,-0.0078,-1.0630,0.079,-0.117,-0.000
810691245,0.0195,-0.0054,-1.0625,0.079,-0.178,-0.061
810704245,0.0181,-0.0063,-1.0684,0.018,0.005,0.122
810717245,0.0210,-0.0059,-1.0635,0.018,-0.056,0.305
810730245,0.0215,-0.0039,-1.0630,0.140,-0.178,0.183
810743245,0.0205,-0.0054,-1.0664,-0.043,-0.117,-0.000
810756245,0.0146,-0.0059,-1.0664,-0.104,-0.056,0.183
810769245,0.0181,-0.0068,-1.0688,-0.104,0.005,0.122
810782245,0.0171,-0.0063,-1.0630,0.079,0.128,-0.183
810795245,0.0200,-0.0073,-1.0645,0.079,-0.117,0.061
810808245,0.0195,-0.0044,-1.0605,-0.043,-0.117,0.061
810821245,0.0171,-0.0059,-1.0630,-0.043,-0.117,-0.122
810834245,0.0171,-0.0063,-1.0684,-0.043,-0.178,-0.061
810847245,0.0181,-0.0078,-1.0635,0.018,0.189,0.122
810860245,0.0176,-0.0068,-1.0635,-0.104,0.067,-0.183
810873245,0.0215,-0.0063,-1.0674,-0.104,0.189,0.122
810886245,0.0186,-0.0073,-1.0630,0.079,0.189,-0.000
810899245,0.0186,-0.0059,-1.0649,0.140,0.067,-0.000
810912245,0.0186,-0.0044,-1.0640,-0.349,-0.056,0.183
810925245,0.0171,-0.0063,-1.0698,0.079,-0.544,-0.122
810938245,0.0347,0.0225,-1.1265,-0.226,0.128,0.061
810951245,0.0249,-0.0229,-1.1245,0.262,0.494,0.122
810964245,0.0347,-0.0220,-1.0547,1.360,0.494,0.122
810977245,0.0161,0.0024,-1.0435,-0.165,-0.361,-0.122
810990245,0.0146,-0.0015,-1.0610,-0.410,0.128,-0.061
811003245,0.0161,-0.0044,-1.0620,-0.104,0.128,0.061
811016245,0.0239,-0.0044,-1.0674,0.262,-0.239,0.122
811029245,0.0210,-0.0044,-1.0732,-0.043,-0.483,0.061
811042245,0.0186,-0.0049,-1.0625,0.018,0.005,0.061
811055245,0.0142,-0.0054,-1.0615,-0.165,-0.239,-0.000
811068245,0.0234,-0.0059,-1.0640,0.140,-0.239,0.183
811081245,0.0215,-0.0073,-1.0625,0.201,-0.361,0.061
811094245,0.0225,-0.0098,-1.0586,0.140,-0.056,-0.122
811107245,0.0200,-0.0044,-1.0625,0.018,-0.300,-0.122
811120245,0.0190,-0.0005,-1.0679,-0.043,-0.056,-0.122
811133245,0.0166,-0.0024,-1.0620,0.079,-0.117,-0.061
811146245,0.0195,-0.0078,-1.0605,0.079,-0.117,0.061
811159245,0.0190,-0.0029,-1.0669,0.079,-0.056,-0.061
811172245,0.0176,-0.0039,-1.0659,0.018,0.005,-0.000
811185245,0.0176,-0.0049,-1.0557,0.323,0.189,-0.000
811198245,0.0200,-0.0034,-1.0635,0.201,-0.056,-0.061
811211245,0.0176,-0.0054,-1.0615,0.018,0.189,-0.000
811224245,0.0200,-0.0039,-1.0659,0.018,-0.056,0.061
811237245,0.0210,-0.0078,-1.0625,-0.104,0.067,0.122
811250245,0.0200,-0.0049,-1.0654,0.201,-0.117,0.183
811263245,0.0200,-0.0078,-1.0664,-0.165,-0.117,0.122
811276245,0.0190,-0.0054,-1.0625,0.018,-0.178,-0.122
811289245,0.0186,-0.0024,-1.0630,0.018,-0.117,0.122
811302245,0.0200,-0.0049,-1.0674,0.018,-0.056,-0.000
811315245,0.0171,-0.0093,-1.0635,0.018,0.128,0.122
811328245,0.0161,-0.0068,-1.0610,0.201,0.067,0.122
811341245,0.0225,-0.0015,-1.0669,-0.226,-0.117,-0.000
811354245,0.0205,-0.0073,-1.0684,-0.043,-0.056,-0.061
811367245,0.0176,-0.0029,-1.0674,0.201,-0.056,-0.244
811380245,0.0195,-0.0044,-1.0684,-0.104,0.005,-0.061
811393245,0.0278,0.0122,-1.0737,-0.349,0.005,-0.122
811406245,0.0234,-0.0122,-1.0815,-0.226,-0.117,-0.061
811419245,0.0259,-0.0088,-1.0659,0.567,0.128,0.122
811432245,0.0186,-0.0093,-1.0630,0.201,0.372,0.122
811445245,0.0220,0.0015,-1.0591,-0.043,0.189,-0.000
811458245,0.0220,-0.0083,-1.0591,-0.165,0.128,-0.000
811471245,0.0200,-0.0054,-1.0674,-0.226,0.067,-0.061
811484245,0.0161,-0.0068,-1.0635,-0.043,0.005,-0.000
811497245,0.0186,-0.0054,-1.0649,-0.043,-0.178,0.061
811510245,0.0176,-0.0078,-1.0630,-0.104,-0.056,-0.000
811523245,0.0186,-0.0073,-1.0688,-0.165,0.128,-0.000
811536245,0.0283,-0.0073,-1.0532,-0.104,0.005,0.122
811549245,0.0176,-0.0049,-1.0679,-0.226,-0.239,0.244
811562245,0.0171,-0.0010,-1.0669,0.201,-0.300,0.061
811575245,0.0200,-0.0059,-1.0684,0.079,-0.117,0.122
811588245,0.0186,-0.0054,-1.0654,-0.104,-0.056,-0.061
811601245,0.0190,-0.0029,-1.0566,-0.104,0.311,-0.061
811614245,0.0215,-0.0054,-1.0698,0.262,-0.239,-0.183
811627245,0.0234,-0.0029,-1.0630,-0.165,-0.056,-0.122
811640245,0.0200,-0.0044,-1.0605,-0.043,-0.117,0.122
811653245,0.0200,-0.0098,-1.0635,-0.043,0.005,0.122
811666245,0.0244,-0.0044,-1.0620,-0.043,-0.056,0.061
811679245,0.0225,-0.0044,-1.0674,0.018,0.067,-0.000
811692245,0.0137,-0.0024,-1.0664,0.079,0.005,0.122
811705245,0.0190,-0.0054,-1.0664,-0.287,0.067,-0.000
811718245,0.0156,-0.0088,-1.0649,-0.043,-0.117,-0.000
811731245,0.0166,-0.0078,-1.0630,-0.226,-0.056,-0.183
811744245,0.0200,-0.0054,-1.0684,-0.104,0.067,0.122
811757245,0.0181,-0.0054,-1.0625,-0.349,0.067,0.122
811770245,0.0171,-0.0063,-1.0674,0.079,-0.056,-0.061
811783245,0.0200,-0.0054,-1.0596,0.140,0.067,0.061
811796245,0.0200,-0.0068,-1.0596,-0.226,-0.117,-0.000
811809245,0.0195,-0.0063,-1.0591,0.079,-0.178,0.061
811822245,0.0142,-0.0073,-0.9971,1.116,-0.788,-0.061
811835245,0.0195,-0.0024,-1.0215,0.445,0.005,0.244
811848245,0.0181,0.0034,-1.0708,-0.959,-0.300,0.061
811861245,0.0093,-0.0059,-1.0781,-0.226,-0.056,0.183
811874245,0.0210,-0.0127,-1.0547,-0.226,-0.056,-0.183
811887245,0.0249,-0.0088,-1.0913,0.079,0.067,-0.061
811900245,0.0210,-0.0020,-1.0454,0.018,-0.178,0.122
811913245,0.0195,-0.0093,-1.0571,-0.104,0.005,-0.183
811926245,0.0171,-0.0029,-1.0718,-0.104,0.005,0.122
811939245,0.0176,-0.0098,-1.0571,-0.165,-0.056,-0.122
811952245,0.0195,-0.0088,-1.0586,0.140,-0.178,0.061
811965245,0.0132,-0.0059,-1.0649,0.018,0.005,0.122
811978245,0.0156,-0.0039,-1.0635,-0.287,-0.178,0.305
811991245,0.0186,-0.0068,-1.0566,-0.104,0.250,-0.000
812004245,0.0195,-0.0020,-1.0601,0.018,-0.056,-0.061
812017245,0.0171,-0.0068,-1.0630,-0.287,-0.056,-0.000
812030245,0.0205,-0.0054,-1.0640,0.140,-0.117,0.061
812043245,0.0205,-0.0068,-1.0635,0.018,-0.056,-0.061
812056245,0.0220,-0.0054,-1.0596,0.384,0.005,0.122
812069245,0.0205,-0.0034,-1.0649,0.140,-0.178,-0.061
812082245,0.0195,-0.0059,-1.0640,-0.349,-0.300,-0.061
812095245,0.0220,-0.0020,-1.0630,-0.043,-0.117,0.061
812108245,0.0171,-0.0068,-1.0723,0.079,-0.056,0.122
812121245,0.0215,-0.0063,-1.0669,0.262,-0.178,0.122
812134245,0.0259,-0.0073,-1.0547,-0.043,-0.056,-0.122
812147245,0.0176,-0.0068,-1.0654,0.018,-0.117,-0.000
812160245,0.0181,-0.0044,-1.0640,-0.165,-0.117,0.061
812173245,0.0215,-0.0068,-1.0557,-0.043,-0.056,0.122
812186245,0.0205,-0.0078,-1.0674,0.079,0.128,-0.061
812199245,0.0200,-0.0078,-1.0537,0.079,-0.117,0.061
812212245,0.0210,-0.0059,-1.0591,-0.104,-0.117,-0.061
812225245,0.0186,-0.0054,-1.0654,0.079,-0.117,0.061
812238245,0.0200,-0.0078,-1.0630,-0.104,-0.239,0.061
812251245,0.0210,-0.0088,-1.0625,0.140,0.005,0.061
812264245,0.0234,-0.0049,-1.0679,0.140,-0.056,-0.122
812277245,0.0142,-0.0029,-1.0640,0.201,-0.178,-0.061
812290245,0.0171,-0.0073,-1.0601,0.079,-0.117,0.183
812303245,0.0171,-0.0063,-1.0679,0.323,-0.178,0.122
812316245,0.0176,-0.0034,-1.0605,0.018,-0.178,0.061
812329245,0.0225,-0.0054,-1.0684,0.079,-0.056,0.183
812342245,0.0244,-0.0059,-1.0630,-0.043,0.128,-0.122
812355245,0.0161,-0.0044,-1.0664,-0.287,0.189,-0.000
812368245,0.0093,-0.0117,-1.0635,-0.043,-0.117,0.061
812381245,0.0073,-0.0112,-1.0093,0.140,-1.093,-0.000
812394245,0.0234,0.0000,-1.0635,-0.226,0.128,-0.305
812407245,0.0083,-0.0068,-1.0474,-0.410,-0.849,-0.183
812420245,0.0156,-0.0054,-1.0693,0.201,-0.056,0.183
812433245,0.0205,-0.0073,-1.0625,0.018,-0.361,-0.061
812446245,0.0156,-0.0078,-1.0571,0.140,-0.117,0.244
812459245,0.0249,-0.0024,-1.0679,0.018,0.128,0.061
812472245,0.0210,-0.0044,-1.0640,0.018,0.067,0.244
812485245,0.0244,-0.0142,-1.0845,0.079,0.005,-0.061
812498245,0.0176,-0.0137,-1.1318,1.727,-0.544,0.122
812511245,0.0112,0.0088,-0.9185,0.567,-0.666,0.122
812524245,0.0254,-0.0210,-1.0850,-2.119,0.067,-0.305
812537245,0.0151,-0.0093,-1.1265,1.422,0.067,0.183
812550245,0.0049,0.0103,-1.0068,-1.081,0.311,-0.061
812563245,0.0254,-0.0200,-1.0923,-0.226,0.250,0.061
812576245,0.0137,-0.0029,-1.0845,0.384,0.677,0.183
812589245,0.0205,-0.0029,-1.0386,0.140,-0.056,-0.000
812602245,0.0210,-0.0122,-1.0718,0.018,-0.605,0.061
812615245,0.0093,-0.0034,-1.0693,0.445,-0.300,0.122
812628245,0.0244,-0.0010,-1.0537,0.201,-0.178,-0.000
812641245,0.0200,-0.0044,-1.0664,0.323,-0.300,-0.000
812654245,0.0142,-0.0054,-1.0498,0.445,-0.422,-0.122
812667245,0.0225,-0.0098,-1.0620,0.018,0.067,-0.183
812680245,0.0190,-0.0063,-1.0591,0.140,-0.239,0.122
812693245,0.0229,-0.0063,-1.0684,0.201,-0.117,-0.000
812706245,0.0176,-0.0049,-1.0659,-0.043,-0.056,0.061
812719245,0.0195,-0.0029,-1.0635,0.140,-0.056,0.061
812732245,0.0205,-0.0078,-1.0654,-0.104,-0.056,0.305
812745245,0.0176,-0.0093,-1.0688,-0.104,0.128,0.061
812758245,0.0215,0.0015,-1.0630,0.018,0.067,-0.000
812771245,0.0220,-0.0078,-1.0659,0.079,-0.178,0.305
812784245,0.0166,-0.0024,-1.0688,0.201,-0.300,0.244
812797245,0.0210,-0.0068,-1.0728,0.140,-0.178,0.061
812810245,0.0225,-0.0044,-1.0640,0.262,-0.239,-0.061
812823245,0.0195,-0.0044,-1.0576,0.079,-0.300,-0.122
812836245,0.0205,-0.0054,-1.0640,0.018,-0.361,-0.061
812849245,0.0220,-0.0068,-1.0605,0.018,0.189,-0.061
812862245,0.0176,-0.0068,-1.0649,-0.226,-0.117,-0.061
812875245,0.0146,-0.0093,-1.0557,-0.043,-0.056,-0.000
812888245,0.0215,-0.0059,-1.0566,0.140,0.067,0.244
812901245,0.0210,-0.0039,-1.0723,0.018,0.005,0.183
812914245,0.0244,-0.0054,-1.0591,0.018,-0.239,0.122
812927245,0.0225,-0.0063,-1.0576,-0.104,0.005,0.305
812940245,0.0176,-0.0044,-1.0698,0.018,0.189,0.244
812953245,0.0244,-0.0029,-1.0610,-0.104,0.128,0.122
812966245,0.0186,-0.0073,-1.0586,-0.226,0.250,-0.000
812979245,0.0225,-0.0034,-1.0645,0.018,-0.056,0.122
812992245,0.0259,-0.0039,-1.0625,-0.104,-0.117,-0.061
813005245,0.0171,-0.0024,-1.0601,-0.104,0.005,0.122
813018245,0.0273,-0.0063,-1.0669,0.079,0.067,-0.183
813031245,0.0151,-0.0049,-1.0635,-0.165,0.128,-0.061
813044245,0.0200,-0.0039,-1.0645,0.018,-0.178,-0.061
813057245,0.0186,-0.0054,-1.0684,-0.226,0.005,-0.122
813070245,0.0215,-0.0054,-1.0591,-0.043,0.005,-0.061
813083245,0.0220,-0.0078,-1.0713,0.018,-0.117,-0.061
813096245,0.0166,-0.0034,-1.0620,0.201,0.005,-0.000
813109245,0.0137,-0.0059,-1.0630,0.079,-0.117,0.366
813122245,0.0156,-0.0044,-1.0605,0.079,0.067,-0.000
813135245,0.0210,-0.0059,-1.0645,0.079,-0.117,-0.061
813148245,0.0215,-0.0059,-1.0566,0.018,0.067,-0.061
813161245,0.0181,-0.0010,-1.0645,-0.043,0.005,0.061
813174245,0.0215,-0.0088,-1.0591,-0.104,-0.056,-0.061
813187245,0.0195,-0.0073,-1.0601,0.018,-0.178,-0.061
813200245,0.0205,-0.0005,-1.0635,-0.226,0.005,-0.122
813213245,0.0171,-0.0059,-1.0674,0.140,-0.300,-0.000
813226245,0.0215,-0.0098,-1.0615,-0.043,-0.056,-0.000
813239245,0.0171,-0.0029,-1.0615,0.262,-0.056,-0.122
813252245,0.0176,-0.0049,-1.0669,0.018,0.005,0.183
813265245,0.0151,-0.0078,-1.0625,0.018,-0.056,-0.000
813278245,0.0229,-0.0034,-1.0625,0.079,0.005,-0.061
813291245,0.0200,-0.0039,-1.0557,-0.165,-0.056,0.061
813304245,0.0176,-0.0078,-1.0620,0.079,-0.056,-0.061
813317245,0.0200,-0.0049,-1.0605,0.140,-0.239,0.183
813330245,0.0166,-0.0073,-1.0654,0.018,-0.178,-0.244
813343245,0.0225,-0.0044,-1.0664,-0.165,-0.056,0.183
813356245,0.0215,-0.0024,-1.0605,0.018,-0.117,0.061
813369245,0.0161,-0.0029,-1.0630,-0.165,0.128,-0.061
813382245,0.0225,-0.0049,-1.0615,-0.165,-0.117,0.061
813395245,0.0151,-0.0015,-1.0610,-0.043,-0.239,0.122
813408245,0.0210,-0.0073,-1.0649,0.018,0.128,0.061
813421245,0.0200,-0.0034,-1.0596,0.018,-0.239,-0.000
813434245,0.0210,-0.0029,-1.0645,0.018,-0.178,0.061
813447245,0.0195,-0.0068,-1.0610,0.201,-0.056,0.122
813460245,0.0151,-0.0078,-1.0625,0.140,0.005,0.122
813473245,0.0181,-0.0020,-1.0581,0.018,-0.056,-0.000
813486245,0.0166,-0.0063,-1.0576,-0.226,-0.056,0.061
813499245,0.0215,-0.0044,-1.0630,-0.104,-0.117,0.061
813512245,0.0205,-0.0088,-1.0610,0.018,-0.239,0.061
813525245,0.0220,-0.0044,-1.0571,0.079,-0.300,0.183
813538245,0.0200,-0.0063,-1.0625,0.018,-0.056,0.122
813551245,0.0195,-0.0059,-1.0669,0.018,-0.117,-0.000
813564245,0.0186,-0.0073,-1.0649,-0.043,-0.239,-0.000
813577245,0.0200,-0.0054,-1.0669,-0.043,0.128,-0.000
813590245,0.0166,-0.0078,-1.0581,0.079,-0.117,0.061
813603245,0.0190,-0.0068,-1.0732,0.079,0.067,-0.061
813616245,0.0200,-0.0083,-1.0566,0.079,0.005,0.122
813629245,0.0200,-0.0073,-1.0659,-0.226,0.005,0.183
813642245,0.0190,-0.0068,-1.0615,-0.043,0.128,-0.000
813655245,0.0151,-0.0054,-1.0630,-0.043,-0.117,-0.122
813668245,0.0195,-0.0039,-1.0640,-0.043,0.005,0.183
813681245,0.0181,-0.0063,-1.0684,0.140,-0.056,0.061
813694245,0.0176,-0.0024,-1.0615,-0.165,-0.239,0.122
813707245,0.0210,-0.0049,-1.0581,-0.043,0.189,-0.000
813720245,0.0181,-0.0005,-1.0601,0.018,-0.117,-0.061
813733245,0.0205,-0.0059,-1.0640,-0.104,0.128,-0.122
813746245,0.0234,-0.0034,-1.0640,0.018,-0.056,-0.061
813759245,0.0239,-0.0059,-1.0620,0.079,-0.178,0.122
813772245,0.0146,-0.0044,-1.0591,-0.165,-0.239,0.244
813785245,0.0210,-0.0093,-1.0630,0.018,-0.178,0.183
813798245,0.0229,-0.0083,-1.0703,0.018,0.128,-0.122
813811245,0.0239,-0.0063,-1.0649,0.140,-0.117,-0.000
813824245,0.0234,-0.0039,-1.0679,0.018,-0.056,0.305
813837245,0.0186,-0.0044,-1.0659,0.018,-0.056,-0.000
813850245,0.0176,-0.0078,-1.0557,-0.226,0.005,0.061
813863245,0.0200,-0.0103,-1.0698,0.079,-0.056,0.244
813876245,0.0171,-0.0044,-1.0664,0.140,0.005,0.244
813889245,0.0239,-0.0073,-1.0703,0.018,-0.056,0.122
813902245,0.0151,-0.0029,-1.0586,0.079,-0.178,0.061
813915245,0.0181,-0.0049,-1.0674,0.201,0.067,-0.122
813928245,0.0195,-0.0059,-1.0645,0.140,-0.300,0.122
813941245,0.0195,-0.0088,-1.0601,0.018,-0.178,-0.061
813954245,0.0225,-0.0063,-1.0596,0.140,-0.178,-0.183
813967245,0.0190,-0.0049,-1.0635,-0.043,-0.056,-0.061
813980245,0.0200,-0.0015,-1.0547,0.079,0.189,0.061
813993245,0.0200,-0.0063,-1.0664,-0.104,-0.117,0.061
814006245,0.0166,-0.0068,-1.0654,0.079,0.005,0.061
814019245,0.0205,-0.0034,-1.0586,-0.043,0.189,0.305
814032245,0.0190,-0.0059,-1.0669,-0.165,-0.178,0.183
814045245,0.0210,-0.0034,-1.0679,-0.165,0.067,0.244
814058245,0.0205,-0.0044,-1.0635,0.018,-0.178,0.122
814071245,0.0229,-0.0049,-1.0615,-0.165,0.250,-0.000
814084245,0.0166,-0.0063,-1.0640,-0.104,-0.117,-0.000
814097245,0.0239,-0.0039,-1.0649,-0.043,0.005,0.122
814110245,0.0195,-0.0093,-1.0620,-0.165,-0.056,0.183
814123245,0.0229,-0.0063,-1.0605,0.079,-0.056,0.122
814136245,0.0195,-0.0054,-1.0625,-0.043,-0.056,0.122
814149245,0.0161,-0.0073,-1.0674,-0.043,-0.056,0.061
814162245,0.0210,-0.0029,-1.0630,-0.226,-0.178,-0.000
814175245,0.0176,-0.0049,-1.0625,-0.043,0.067,0.122
814188245,0.0166,-0.0063,-1.0732,-0.287,0.005,0.122
814201245,0.0181,-0.0039,-1.0576,0.079,-0.117,-0.183
814214245,0.0176,-0.0059,-1.0620,-0.043,-0.056,0.183
814227245,0.0234,-0.0039,-1.0610,-0.043,-0.239,-0.244
814240245,0.0210,-0.0068,-1.0630,-0.165,0.067,0.122
814253245,0.0200,-0.0068,-1.0557,0.018,-0.178,-0.122
814266245,0.0190,-0.0083,-1.0605,-0.287,-0.239,-0.061
814279245,0.0215,-0.0034,-1.0640,0.018,-0.239,0.183
814292245,0.0215,-0.0039,-1.0679,0.018,-0.056,0.061
814305245,0.0176,-0.0039,-1.0674,-0.165,0.128,-0.122
814318245,0.0220,-0.0054,-1.0601,-0.165,0.067,0.061
814331245,0.0190,-0.0034,-1.0674,-0.043,-0.239,-0.061
814344245,0.0220,-0.0054,-1.0601,-0.226,0.005,0.061
814357245,0.0205,-0.0068,-1.0674,-0.165,0.005,-0.183
814370245,0.0190,-0.0088,-1.0679,-0.287,0.250,-0.061
814383245,0.0186,-0.0034,-1.0649,-0.043,-0.117,0.061
814396245,0.0229,-0.0005,-1.0640,0.018,0.005,-0.061
814409245,0.0176,-0.0083,-1.0591,0.201,-0.178,-0.122
814422245,0.0215,-0.0054,-1.0664,-0.043,0.005,-0.000
814435245,0.0181,-0.0024,-1.0591,0.201,-0.239,-0.000
814448245,0.0244,-0.0054,-1.0654,0.079,0.067,-0.061
814461245,0.0190,-0.0024,-1.0581,0.018,-0.117,0.061
814474245,0.0186,-0.0068,-1.0630,-0.104,0.005,0.122
814487245,0.0176,-0.0039,-1.0596,0.140,-0.056,-0.061
814500245,0.0190,-0.0024,-1.0649,-0.104,-0.117,-0.061
814513245,0.0186,-0.0039,-1.0630,-0.226,-0.056,0.244
814526245,0.0195,-0.0024,-1.0684,0.018,0.128,-0.244
814539245,0.0234,-0.0059,-1.0674,-0.043,-0.239,-0.061
814552245,0.0239,-0.0034,-1.0640,0.079,-0.056,-0.000
814565245,0.0215,-0.0034,-1.0625,-0.226,-0.056,-0.183
814578245,0.0264,-0.0039,-1.0635,-0.043,0.250,0.183
814591245,0.0171,-0.0083,-1.0654,-0.287,-0.178,-0.122
814604245,0.0229,-0.0020,-1.0635,-0.043,0.128,-0.061
814617245,0.0244,-0.0059,-1.0649,-0.165,0.067,-0.000
814630245,0.0215,-0.0068,-1.0630,-0.165,0.005,-0.061
814643245,0.0171,-0.0083,-1.0630,0.018,-0.056,-0.061
814656245,0.0186,-0.0068,-1.0674,0.262,0.005,-0.061
814669245,0.0210,-0.0024,-1.0625,0.323,-0.239,-0.000
814682245,0.0210,-0.0020,-1.0630,0.201,-0.117,-0.000
814695245,0.0156,-0.0049,-1.0527,0.018,0.128,0.061
814708245,0.0210,-0.0083,-1.0610,-0.287,-0.117,-0.000
814721245,0.0205,-0.0054,-1.0688,0.018,-0.056,-0.000
814734245,0.0195,-0.0039,-1.0669,0.140,0.005,0.061
814747245,0.0200,-0.0054,-1.0596,-0.043,-0.056,-0.183
814760245,0.0171,-0.0054,-1.0713,0.262,-0.178,-0.000
814773245,0.0151,-0.0054,-1.0591,0.201,-0.056,-0.000
814786245,0.0205,-0.0029,-1.0522,-0.043,-0.361,0.183
814799245,0.0234,-0.0044,-1.0615,0.018,0.128,-0.061
814812245,0.0200,-0.0044,-1.0679,-0.287,-0.178,-0.000
814825245,0.0171,-0.0044,-1.0630,-0.104,0.128,0.122
814838245,0.0186,-0.0054,-1.0684,0.262,-0.117,-0.122
814851245,0.0176,-0.0063,-1.0669,0.262,-0.239,-0.000
814864245,0.0239,-0.0059,-1.0693,0.323,-0.178,-0.061
814877245,0.0195,-0.0049,-1.0576,0.262,-0.178,-0.000
814890245,0.0205,-0.0024,-1.0605,0.079,-0.056,-0.061
814903245,0.0210,-0.0024,-1.0581,-0.043,-0.056,-0.244
814916245,0.0181,-0.0073,-1.0649,-0.165,-0.117,0.122
814929245,0.0166,-0.0078,-1.0635,-0.349,0.067,0.122
814942245,0.0200,-0.0049,-1.0703,-0.043,0.189,-0.244
814955245,0.0254,-0.0073,-1.0620,0.018,-0.178,0.061
814968245,0.0200,-0.0049,-1.0640,0.018,-0.117,-0.000
814981245,0.0181,-0.0049,-1.0615,-0.104,-0.117,-0.000
814994245,0.0186,-0.0015,-1.0605,-0.104,-0.178,0.366
815007245,0.0215,-0.0044,-1.0620,-0.043,-0.178,-0.000
815020245,0.0146,0.0005,-1.0630,-0.226,0.067,0.061
815033245,0.0244,-0.0068,-1.0664,-0.104,0.067,0.183
815046245,0.0195,-0.0073,-1.0645,-0.410,-0.117,-0.000
815059245,0.0151,-0.0049,-1.0635,-0.043,-0.178,0.061
815072245,0.0161,-0.0044,-1.0576,-0.104,-0.239,-0.305
815085245,0.0210,-0.0029,-1.0762,0.079,0.005,0.122
815098245,0.0249,-0.0068,-1.0610,-0.165,-0.239,-0.061
815111245,0.0229,-0.0088,-1.0693,0.018,0.005,-0.061
815124245,0.0200,-0.0054,-1.0654,0.201,0.311,-0.000
815137245,0.0190,-0.0059,-1.0654,0.079,0.067,0.122
815150245,0.0239,-0.0024,-1.0576,-0.043,-0.178,-0.000
815163245,0.0215,-0.0054,-1.0679,0.079,-0.422,-0.122
815176245,0.0151,-0.0054,-1.0625,-0.043,-0.117,-0.000
815189245,0.0166,-0.0029,-1.0649,0.018,-0.056,-0.000
815202245,0.0166,-0.0068,-1.0591,0.140,-0.056,0.122
815215245,0.0186,-0.0059,-1.0664,0.018,-0.849,-0.000
815228245,-0.1724,-0.0762,-0.8833,1.055,-143.427,-4.273
815241245,0.0625,-0.0620,-1.0283,-3.034,-12.202,0.061
815254245,0.0127,-0.0669,-1.0430,0.750,-2.253,1.404
815267245,0.0293,-0.0791,-1.0659,1.666,0.433,-8.850
815280245,0.0542,0.0039,-1.0356,1.299,-1.948,-7.508
815293245,0.1016,0.1016,-1.2275,-4.011,20.818,-1.587
815306245,0.0176,0.1323,-1.0889,-1.569,13.250,-3.052
815319245,0.0381,0.0615,-1.0635,-1.020,9.344,-1.221
815332245,0.0293,-0.0010,-1.0596,-0.959,12.396,-0.061
815345245,-0.1431,0.0029,-0.8813,-0.837,-5.976,1.281
815358245,0.0410,-0.0400,-1.0762,0.933,-15.864,-0.366
815371245,0.0371,-0.0024,-1.0474,-0.349,-23.188,1.587
815384245,0.0542,-0.0063,-1.0786,-0.226,2.935,1.587
815397245,0.0356,0.0015,-1.0635,-0.226,0.372,1.159
815410245,0.0376,-0.0078,-1.0635,-0.165,0.189,0.671
815423245,0.0366,-0.0049,-1.0615,0.018,-0.605,0.366
815436245,0.0366,-0.0015,-1.0581,0.140,-0.483,-0.061
815449245,0.0381,-0.0044,-1.0576,-0.043,-1.093,0.061
815462245,0.0425,-0.0029,-1.0645,-0.104,0.311,-0.061
815475245,0.0347,-0.0059,-1.0586,0.018,-2.375,-0.000
815488245,0.0073,-0.0137,-1.0117,-0.287,-0.422,0.427
815501245,0.0376,-0.0010,-1.0566,0.018,-0.666,-0.000
815514245,0.0386,-0.0039,-1.0596,0.323,-1.459,0.183
815527245,0.0386,-0.0063,-1.0654,0.140,0.005,-0.122
815540245,0.0405,-0.0044,-1.0610,-0.043,-0.422,-0.183
815553245,0.0415,-0.0063,-1.0649,0.140,0.433,-0.000
815566245,0.0415,-0.0063,-1.0601,0.018,0.494,-0.183
815579245,0.0347,-0.0034,-1.0625,0.079,-0.361,-0.122
815592245,0.0361,-0.0068,-1.0649,0.079,-0.178,0.122
815605245,0.0396,-0.0049,-1.0581,0.262,-0.300,0.061
815618245,0.0400,-0.0029,-1.0630,-0.104,-0.422,-0.061
815631245,0.0410,-0.0063,-1.0615,-0.043,-0.483,-0.061
815644245,0.0391,-0.0073,-1.0640,0.079,-0.117,0.183
815657245,0.0376,-0.0063,-1.0640,-0.043,-0.056,-0.061
815670245,0.0391,-0.0063,-1.0610,0.079,0.433,-0.122
815683245,0.0410,-0.0049,-1.0537,-0.165,0.005,-0.061
815696245,0.0381,-0.0034,-1.0693,-0.226,0.005,-0.000
815709245,0.0400,-0.0073,-1.0674,-0.043,0.005,-0.122
815722245,0.0391,-0.0039,-1.0620,-0.043,0.005,-0.000
815735245,0.0376,-0.0029,-1.0664,0.079,0.005,-0.061
815748245,0.0405,-0.0034,-1.0610,-0.043,-0.056,-0.000
815761245,0.0366,-0.0029,-1.0596,-0.043,-0.178,-0.122
815774245,0.0410,-0.0093,-1.0669,-0.104,-0.117,0.061
815787245,0.0347,-0.0020,-1.0537,-0.165,-0.117,-0.244
815800245,0.0381,-0.0024,-1.0698,-0.226,0.189,-0.000
815813245,0.0381,-0.0083,-1.0601,-0.104,-0.178,-0.122
815826245,0.0425,-0.0068,-1.0625,-0.165,0.005,-0.061
815839245,0.0361,-0.0073,-1.0630,-0.165,0.128,0.061
815852245,0.0356,-0.0088,-1.0635,0.018,0.372,0.183
815865245,0.0396,-0.0029,-1.0659,0.018,-0.117,-0.000
815878245,0.0405,-0.0029,-1.0684,0.018,-0.117,0.061
815891245,0.0386,-0.0063,-1.0591,0.201,0.067,-0.061
815904245,0.0381,-0.0054,-1.0640,-0.165,0.067,-0.122
815917245,0.0391,-0.0034,-1.0586,0.140,-0.178,-0.061
815930245,0.0381,-0.0078,-1.0674,-0.043,0.067,0.061
815943245,0.0415,-0.0054,-1.0586,0.140,-0.178,-0.061
815956245,0.0400,-0.0078,-1.0630,-0.165,0.005,-0.122
815969245,0.0400,-0.0054,-1.0635,0.201,-0.117,-0.061
815982245,0.0342,-0.0049,-1.0601,-0.104,0.067,0.122
815995245,0.0386,-0.0063,-1.0586,0.079,0.005,-0.000
816008245,0.0430,-0.0059,-1.0674,0.140,0.128,0.122
816021245,0.0396,-0.0044,-1.0669,0.079,-0.178,-0.122
816034245,0.0361,-0.0059,-1.0659,-0.043,0.189,-0.183
816047245,0.0400,-0.0068,-1.0586,-0.104,-0.239,-0.000
816060245,0.0391,-0.0034,-1.0645,0.079,-0.239,-0.122
816073245,0.0376,-0.0044,-1.0532,-0.287,-0.056,0.061
816086245,0.0420,-0.0127,-1.0894,0.384,-0.117,-0.000
816099245,0.0371,-0.0088,-1.0562,0.079,0.616,0.244
816112245,0.0381,0.0029,-1.0508,-0.532,-0.361,0.183
816125245,0.0425,-0.0156,-1.0815,0.323,-0.117,0.061
816138245,0.0347,-0.0015,-1.0439,-0.043,0.128,0.061
816151245,0.0356,-0.0063,-1.0674,-0.593,0.067,0.122
816164245,0.0435,-0.0063,-1.0679,0.201,0.128,-0.122
816177245,0.0386,-0.0029,-1.0498,-0.349,-0.056,-0.061
816190245,0.0391,-0.0132,-1.0747,-0.104,0.067,0.061
816203245,0.0386,-0.0034,-1.0640,-0.043,0.311,0.183
816216245,0.0400,-0.0049,-1.0659,-0.165,-0.117,-0.000
816229245,0.0396,-0.0078,-1.0654,0.384,0.005,-0.000
816242245,0.0391,-0.0078,-1.0571,0.079,-0.117,-0.061
816255245,0.0391,-0.0088,-1.0728,-0.043,-0.239,-0.061
816268245,0.0356,-0.0034,-1.0630,0.140,-0.117,-0.244
816281245,0.0410,-0.0068,-1.0649,-0.104,-0.117,0.061
816294245,0.0386,-0.0029,-1.0654,0.201,-0.056,-0.122
816307245,0.0376,-0.0020,-1.0684,-0.104,-0.117,-0.183
816320245,0.0435,-0.0078,-1.0635,-0.104,0.067,0.061
816333245,0.0396,-0.0073,-1.0596,-0.043,-0.056,-0.061
816346245,0.0386,-0.0054,-1.0649,0.079,0.005,0.061
816359245,0.0400,-0.0068,-1.0674,0.140,-0.117,-0.366
816372245,0.0400,-0.0063,-1.0640,0.506,-0.178,-0.061
816385245,0.0391,-0.0024,-1.0601,0.201,0.005,-0.000
816398245,0.0405,-0.0029,-1.0571,-0.104,0.005,0.061
816411245,0.0356,-0.0059,-1.0576,0.262,0.067,-0.061
816424245,0.0381,-0.0054,-1.0713,0.018,-0.117,-0.000
816437245,0.0391,-0.0024,-1.0645,0.201,0.128,0.122
816450245,0.0439,-0.0073,-1.0654,0.140,0.005,-0.244
816463245,0.0410,-0.0039,-1.0581,-0.043,-0.178,-0.000
816476245,0.0376,-0.0068,-1.0596,0.140,-0.239,-0.000
816489245,0.0376,-0.0015,-1.0620,0.262,-0.178,0.061
816502245,0.0337,-0.0049,-1.0610,-0.165,-0.178,0.244
816515245,0.0400,-0.0068,-1.0649,0.079,0.128,-0.122
816528245,0.0386,-0.0044,-1.0679,-0.165,0.250,-0.122
816541245,0.0371,-0.0029,-1.0649,-0.043,-0.117,-0.183
816554245,0.0347,-0.0024,-1.0669,-0.043,-0.056,-0.000
816567245,0.0420,-0.0029,-1.0620,-0.104,0.128,-0.061
816580245,0.0425,-0.0049,-1.0630,0.140,0.128,-0.061
816593245,0.0371,-0.0078,-1.0645,0.018,0.005,-0.000
816606245,0.0405,-0.0063,-1.0625,-0.043,0.005,0.122
816619245,0.0356,-0.0044,-1.0630,0.140,0.005,-0.061
816632245,0.0356,-0.0073,-1.0645,0.201,-0.117,-0.000
816645245,0.0347,-0.0049,-1.0659,0.201,0.067,0.183
816658245,0.0405,-0.0054,-1.0654,-0.104,0.250,-0.122
816671245,0.0371,-0.0083,-1.0640,0.079,0.067,0.366
816684245,0.0396,-0.0073,-1.0728,0.018,-0.178,-0.061
816697245,0.0371,-0.0039,-1.0635,-0.104,-0.178,-0.061
816710245,0.0415,-0.0073,-1.0669,-0.104,-0.056,-0.061
816723245,0.0371,-0.0063,-1.0615,-0.104,-0.117,-0.061
816736245,0.0396,-0.0063,-1.0684,-0.165,0.128,-0.122
816749245,0.0366,-0.0020,-1.0615,0.018,-0.239,0.122
816762245,0.0381,-0.0098,-1.0615,0.018,-0.117,0.061
816775245,0.0420,-0.0049,-1.0610,0.018,-0.117,-0.183
816788245,0.0381,-0.0034,-1.0532,-0.165,0.067,-0.061
816801245,0.0371,-0.0020,-1.0688,0.018,0.067,0.061
816814245,0.0410,-0.0083,-1.0654,-0.165,0.128,-0.305
816827245,0.0400,-0.0063,-1.0654,-0.043,-0.056,0.061
816840245,0.0371,-0.0005,-1.0679,-0.165,-0.056,-0.061
816853245,0.0396,-0.0083,-1.0620,-0.043,-0.117,-0.122
816866245,0.0371,-0.0029,-1.0684,-0.043,-0.178,-0.000
816879245,0.0430,-0.0098,-1.0649,0.079,0.005,0.244
