timestamp_us,ax,ay,az,gx,gy,gz,roll,pitch,yaw
120339248.0,-0.0288,0.0103,-1.0615,0.101,0.126,-0.137,179.55258594194015,1.5434105315714635,0.06599964800000369
120352248.0,-0.0312,0.0117,-1.0669,-0.143,0.065,-0.015,179.54699738707214,1.5465761329453036,0.06608529200000368
120365248.0,-0.0273,0.0073,-1.0552,0.284,0.065,-0.259,179.55159913743938,1.545818943727305,0.06299893600000368
120378248.0,-0.0264,0.0078,-1.0664,-0.082,-0.179,0.229,179.55099201396146,1.5406906285428257,0.06625658000000369
120391248.0,-0.0298,0.0068,-1.0605,0.04,0.248,0.168,179.55298517661404,1.5449339497928343,0.06872122400000369
120404248.0,-0.0283,0.0078,-1.0571,-0.021,0.004,-0.076,179.553053737888,1.5444623565643676,0.0680138680000037
120417248.0,-0.0264,0.0088,-1.0649,0.223,0.187,-0.015,179.55521540417556,1.5440637370171537,0.06809951200000369
120430248.0,-0.0303,0.0107,-1.063,0.04,0.187,-0.076,179.5529374625887,1.547924364697308,0.0673921560000037
120443248.0,-0.0293,0.0083,-1.061,-0.265,-0.057,0.168,179.54938951073473,1.547582244450522,0.0698568000000037
120456248.0,-0.0283,0.0103,-1.0649,0.101,0.065,-0.015,179.54845619445607,1.5476096932513022,0.0699424440000037
120469248.0,-0.0283,0.0093,-1.0566,0.101,0.065,0.046,179.54853892448517,1.5478758784532298,0.0708210880000037
120482248.0,-0.0288,0.0068,-1.0674,-0.082,-0.24,-0.259,179.54907436470683,1.5444776711711699,0.0677347320000037
120495248.0,-0.0303,0.0117,-1.0654,-0.021,-0.118,-0.015,179.54509263084543,1.5443704895248593,0.0678203760000037
120508248.0,-0.0293,0.0078,-1.062,0.04,-0.118,0.046,179.5461351933254,1.5432926473915627,0.06869902000000369
120521248.0,-0.0317,0.0088,-1.0669,0.101,0.126,-0.198,179.5468987007002,1.547775166660306,0.0664056640000037
120534248.0,-0.0244,0.0068,-1.064,-0.021,0.065,0.168,179.54822075866284,1.5436277095948343,0.0688703080000037
120547248.0,-0.0288,0.0093,-1.0649,0.162,-0.179,-0.015,179.54916394434102,1.5411635841700042,0.06895595200000369
120560248.0,-0.0269,0.0098,-1.0664,0.04,0.065,-0.076,179.54801082267906,1.5397734217062782,0.0682485960000037
120573248.0,-0.0273,0.0103,-1.0625,-0.021,-0.24,-0.198,179.5455257666018,1.5350623563115589,0.0659552400000037
120586248.0,-0.0273,0.0078,-1.063,0.223,0.37,0.107,179.5488990034651,1.5382036629602207,0.0676268840000037
120599248.0,-0.0298,0.0068,-1.064,-0.082,-0.057,0.046,179.54940391537244,1.5385051916948722,0.0685055280000037
120612248.0,-0.0312,0.0107,-1.0581,-0.082,0.126,-0.198,179.54563451285773,1.5428247884024295,0.0662121720000037
120625248.0,-0.0322,0.0078,-1.061,0.04,-0.057,-0.137,179.54665830567598,1.5457141550145976,0.06471181600000371
120638248.0,-0.0278,0.0068,-1.0581,0.04,0.126,-0.137,179.54872147702685,1.546211361882323,0.06321146000000372
120651248.0,-0.0269,0.0083,-1.0615,0.162,0.065,-0.137,179.5507020470839,1.5448539235145116,0.061711104000003715
120664248.0,-0.0317,0.0083,-1.0635,0.101,0.065,0.29,179.55188271484033,1.5486369490848697,0.06576174800000371
120677248.0,-0.0278,0.0068,-1.0645,-0.021,-0.057,0.107,179.55310853226732,1.5465634043002172,0.06743339200000371
120690248.0,-0.0293,0.0088,-1.063,0.284,0.187,-0.137,179.55602931811848,1.5492974555917844,0.06593303600000372
120703248.0,-0.0288,0.0078,-1.0649,0.101,0.004,-0.198,179.55765320547604,1.549051705447044,0.06363968000000372
120716248.0,-0.0273,0.0063,-1.0596,-0.021,0.248,0.107,179.55927047319412,1.550453584859168,0.06531132400000372
120729248.0,-0.0288,0.0093,-1.061,-0.021,0.248,-0.015,179.55762446195587,1.5534067415058324,0.06539696800000372
120742248.0,-0.0264,0.0122,-1.0552,0.162,0.065,-0.259,179.5551386014404,1.5515349936894651,0.06231061200000372
120755248.0,-0.0293,0.0068,-1.0635,0.101,-0.057,-0.015,179.55784669840685,1.5510466513013053,0.06239625600000372
120768248.0,-0.0259,0.0073,-1.062,0.04,-0.118,-0.015,179.55917366054132,1.546169301144868,0.062481900000003726
120781248.0,-0.0278,0.0142,-1.0605,0.101,0.248,-0.076,179.55378513007935,1.548141527472906,0.06177454400000373
120794248.0,-0.0317,0.0078,-1.0596,-0.082,-0.179,0.046,179.55308050057195,1.5488759581060585,0.06265318800000373
120807248.0,-0.0327,0.0083,-1.0601,0.162,0.065,-0.015,179.5549620579626,1.55376790488703,0.06273883200000373
120820248.0,-0.0322,0.0078,-1.0625,-0.021,0.065,-0.015,179.55503405231215,1.5579436411987577,0.06282447600000372
120833248.0,-0.0298,0.0088,-1.0591,0.04,-0.118,-0.137,179.55477283766453,1.5572211425893054,0.06132412000000372
120846248.0,-0.0298,0.0078,-1.0557,0.04,0.065,0.107,179.55557157341008,1.5589485027966652,0.06299576400000373
120859248.0,-0.0298,0.0088,-1.0645,-0.021,-0.057,0.046,179.55457076494469,1.5588196314191856,0.06387440800000373
120872248.0,-0.0278,0.0122,-1.064,-0.021,0.187,-0.015,179.54992412067145,1.5596636899899374,0.06396005200000372
120885248.0,-0.0298,0.0068,-1.0601,0.101,-0.118,0.229,179.55271300885192,1.5588768495356384,0.06721769600000373
120898248.0,-0.0288,0.0117,-1.0669,0.101,0.065,0.046,179.5502304726457,1.5591575705911405,0.06809634000000372
120911248.0,-0.0254,0.0103,-1.061,0.04,0.004,-0.076,179.54846246008861,1.5551582728261346,0.06738898400000373
120924248.0,-0.0293,0.0107,-1.061,0.04,-0.057,-0.198,179.5462978366762,1.554670834055822,0.06509562800000374
120937248.0,-0.0273,0.0093,-1.062,-0.082,0.126,-0.137,179.54414359536327,1.5543387672565498,0.06359527200000374
120950248.0,-0.0327,0.0098,-1.0576,0.223,0.004,-0.015,179.54533468480318,1.5584273559400028,0.06368091600000374
120963248.0,-0.0278,0.0063,-1.0635,0.101,0.065,-0.015,179.54877758699647,1.5577404881340182,0.06376656000000373
120976248.0,-0.0249,0.0059,-1.064,-0.082,0.248,0.229,179.55025418215595,1.556263474246023,0.06702420400000374
120989248.0,-0.0288,0.0093,-1.0723,-0.021,0.126,0.107,179.5488943366126,1.5572186421327094,0.06869584800000374
121002248.0,-0.0273,0.0083,-1.0713,-0.082,0.187,-0.259,179.54784484899363,1.5573574606771108,0.06560949200000374
121015248.0,-0.0298,0.0132,-1.062,0.162,0.065,-0.198,179.54456053973513,1.5588887605130084,0.06331613600000374
121028248.0,-0.0278,0.0088,-1.0635,-0.143,0.248,-0.076,179.54221676512822,1.5605235851086179,0.06260878000000375
121041248.0,-0.0288,0.0112,-1.064,0.162,-0.057,-0.32,179.54122547889807,1.5593014811217274,0.05872942400000375
121054248.0,-0.0317,0.0063,-1.0605,-0.082,0.065,0.107,179.54239994300974,1.562892528914767,0.06040106800000375
121067248.0,-0.0308,0.0054,-1.064,0.101,0.065,0.229,179.54687399002353,1.5653309039620453,0.06365871200000375
121080248.0,-0.0298,0.0083,-1.0605,-0.082,0.126,0.168,179.54577450144,1.5675268157380136,0.06612335600000376
121093248.0,-0.0293,0.0103,-1.0591,0.101,0.126,-0.015,179.54485279338195,1.5691802630411822,0.06620900000000375
121106248.0,-0.0283,0.0063,-1.0615,-0.082,0.126,-0.076,179.54596112399656,1.569651249562459,0.06550164400000376
121119248.0,-0.0278,0.0059,-1.0601,0.04,0.126,-0.015,179.5490249525677,1.5696131091361478,0.06558728800000375
121132248.0,-0.0259,0.0073,-1.0693,-0.021,-0.057,-0.076,179.54980498133352,1.5649509078250017,0.06487993200000376
121145248.0,-0.0283,0.0073,-1.061,0.04,-0.179,-0.015,179.55128535420116,1.5616349830284533,0.06496557600000376
121158248.0,-0.0249,0.0078,-1.0581,0.162,0.065,-0.137,179.55372732254972,1.557897789234311,0.06346522000000376
121171248.0,-0.0273,0.0073,-1.0625,0.162,-0.118,-0.015,179.55669465876554,1.554379204507032,0.06355086400000376
121184248.0,-0.0234,0.0122,-1.062,0.223,0.248,-0.198,179.55508935551,1.5514009503789594,0.06125750800000376
121197248.0,-0.0273,0.0068,-1.0649,-0.021,-0.057,0.107,179.55625378959576,1.5487232247357,0.06292915200000376
121210248.0,-0.0298,0.0088,-1.0576,0.223,0.126,0.046,179.5582860969582,1.5513393835496117,0.06380779600000376
121223248.0,-0.0269,0.0054,-1.0659,-0.204,0.004,0.168,179.55856708735914,1.5489829646567113,0.06627244000000376
121236248.0,-0.0278,0.0142,-1.0679,0.223,0.004,0.168,179.55485127346404,1.547582399688915,0.06873708400000376
121249248.0,-0.0312,0.0078,-1.0718,0.101,0.004,0.107,179.55655275365854,1.5497354820727804,0.07040872800000376
121262248.0,-0.0273,0.0088,-1.062,-0.021,-0.057,0.168,179.55551002310213,1.5471708204066974,0.07287337200000377
121275248.0,-0.0273,0.0073,-1.0591,-0.082,0.248,0.046,179.5553078716589,1.5486240667839197,0.07375201600000376
121288248.0,-0.0283,0.0083,-1.0645,-0.021,-0.057,-0.076,179.5548505437333,1.5470883322184257,0.07304466000000377
121301248.0,-0.0269,0.0054,-1.0601,-0.021,0.065,0.168,179.55749990378118,1.5457521899707196,0.07550930400000377
121314248.0,-0.0303,0.0073,-1.0635,0.101,-0.057,-0.076,179.5596220510455,1.5464560292797023,0.07480194800000378
121327248.0,-0.0264,0.0088,-1.0625,-0.082,0.004,0.046,179.55774526263272,1.5437502398975054,0.07568059200000378
121340248.0,-0.0327,0.0103,-1.0635,-0.021,0.004,0.107,179.555075962136,1.5478540953447333,0.07735223600000378
121353248.0,-0.0293,0.0093,-1.0635,-0.021,0.065,-0.198,179.55353745076187,1.5489930896481654,0.07505888000000378
121366248.0,-0.0288,0.0098,-1.0591,0.162,-0.057,-0.015,179.553778560548,1.5481453776339094,0.07514452400000378
121379248.0,-0.0283,0.0073,-1.0615,-0.082,-0.362,0.107,179.5536288953838,1.5428197576366458,0.07681616800000378
121392248.0,-0.0298,0.0112,-1.0581,0.101,-0.057,0.229,179.55156497443573,1.5432066305252181,0.08007381200000378
121405248.0,-0.0312,0.0088,-1.0693,0.101,0.004,-0.076,179.5522410987824,1.5455249025255604,0.07936645600000379
121418248.0,-0.0264,0.0063,-1.0659,-0.204,0.187,0.046,179.55167545663375,1.5450788702368121,0.08024510000000379
121431248.0,-0.0288,0.0083,-1.0635,0.04,-0.057,-0.015,179.5520595161992,1.544181005184977,0.08033074400000378
121444248.0,-0.0308,0.0073,-1.0645,0.04,-0.118,-0.198,179.5535207199807,1.544646270978221,0.07803738800000379
121457248.0,-0.0317,0.0068,-1.064,0.101,-0.057,-0.076,179.55626461755773,1.5468634754775445,0.0773300320000038
121470248.0,-0.0283,0.0098,-1.0664,-0.143,-0.118,-0.137,179.55263806243144,1.544531214847096,0.0758296760000038
121483248.0,-0.0317,0.0098,-1.062,0.223,0.187,0.046,179.5537032519552,1.5499227597711263,0.0767083200000038
121496248.0,-0.0249,0.0078,-1.0586,-0.082,0.004,0.107,179.55299229200094,1.5456299416358334,0.0783799640000038
121509248.0,-0.0298,0.0044,-1.0659,0.223,0.065,-0.076,179.55989418427473,1.5472804427156295,0.0776726080000038
121522248.0,-0.0312,0.0054,-1.0664,-0.143,0.187,-0.137,179.56092287480732,1.5519402081518077,0.07617225200000381
121535248.0,-0.0288,0.0088,-1.0527,-0.082,-0.24,0.107,179.55893172171116,1.5488916765086675,0.07784389600000381
121548248.0,-0.0308,0.0083,-1.0601,0.04,-0.118,0.046,179.55914197467902,1.5493999869766952,0.07872254000000381
121561248.0,-0.0254,0.0078,-1.0566,0.101,0.126,-0.076,179.56063767900693,1.5472648355039675,0.07801518400000382
121574248.0,-0.0303,0.0078,-1.062,0.223,0.126,0.046,179.56370076052366,1.5503158049759678,0.07889382800000382
121587248.0,-0.0269,0.0088,-1.0679,-0.082,0.065,-0.137,179.56179038672184,1.5487022624123756,0.07739347200000382
121600248.0,-0.0317,0.0088,-1.061,-0.143,0.126,-0.198,179.5590796746887,1.553265734394351,0.07510011600000382
121613248.0,-0.0298,0.0093,-1.0654,-0.021,0.004,0.046,179.5574789582936,1.5540004557106473,0.07597876000000382
121626248.0,-0.0259,0.0117,-1.0659,0.162,0.065,0.229,179.5556664549381,1.551292240557238,0.07923640400000383
121639248.0,-0.0264,0.0044,-1.0562,0.101,-0.118,0.107,179.56091714223987,1.5471059020478368,0.08090804800000383
121652248.0,-0.0254,0.0117,-1.0654,0.101,-0.118,0.107,179.55825283282783,1.5416797727752627,0.08257969200000383
121665248.0,-0.0293,0.0054,-1.0635,-0.204,0.004,0.046,179.5585213878717,1.5421659129903909,0.08345833600000382
121678248.0,-0.0288,0.0098,-1.0684,0.101,0.065,0.168,179.5579779687666,1.5427380155073234,0.08592298000000383
121691248.0,-0.0293,0.0117,-1.0659,-0.082,-0.057,0.046,179.55304692520164,1.5423533303581134,0.08680162400000382
121704248.0,-0.0337,0.0093,-1.0605,-0.143,0.004,0.168,179.549966369638,1.547664438457948,0.08926626800000383
121717248.0,-0.0288,0.0093,-1.0576,-0.082,0.126,-0.076,179.54769701224416,1.5492190096797924,0.08855891200000383
121730248.0,-0.0303,0.0088,-1.0605,-0.082,-0.057,0.046,179.54604082696457,1.549945436422279,0.08943755600000383
121743248.0,-0.0288,0.0063,-1.0591,0.101,-0.057,-0.259,179.5494414058614,1.5490794595283053,0.08635120000000383
121756248.0,-0.0278,0.0107,-1.061,0.101,-0.057,-0.198,179.54803434353352,1.547094801357556,0.08405784400000384
121769248.0,-0.0288,0.0073,-1.061,0.04,0.065,-0.076,179.54955012915715,1.5477841719709786,0.08335048800000384
121782248.0,-0.0269,0.0044,-1.064,0.04,0.187,-0.015,179.55418099786468,1.5478820093881849,0.08343613200000384
121795248.0,-0.0273,0.0093,-1.0576,0.04,-0.118,-0.076,179.55338162790628,1.544699616124695,0.08272877600000385
121808248.0,-0.0273,0.0083,-1.0625,-0.082,-0.057,-0.137,179.5521688674245,1.5422219315765413,0.08122842000000385
121821248.0,-0.022,0.0078,-1.0581,0.101,0.065,-0.259,179.5538160255086,1.5357339462204833,0.07814206400000386
121834248.0,-0.0249,0.0098,-1.0654,0.162,0.065,0.107,179.55411425875977,1.5323297029901373,0.07981370800000386
121847248.0,-0.0312,0.0078,-1.061,-0.326,-0.057,-0.259,179.55030561665995,1.534349930198801,0.07672735200000386
121860248.0,-0.0259,0.0068,-1.0596,0.162,-0.118,-0.015,179.55386054655494,1.5298698591892497,0.07681299600000385
121873248.0,-0.0342,0.0059,-1.0601,0.162,0.126,-0.015,179.55832066667492,1.5375393910174162,0.07689864000000385
121886248.0,-0.0303,0.0078,-1.0596,-0.082,-0.057,-0.076,179.5575253264356,1.5385274355666925,0.07619128400000386
121899248.0,-0.0239,0.0068,-1.0635,-0.021,0.187,0.229,179.55863140890216,1.535593101932679,0.07944892800000386
121912248.0,-0.0244,0.0078,-1.0625,0.04,0.126,-0.259,179.55940715623294,1.532503333374482,0.07636257200000386
121925248.0,-0.0259,0.0068,-1.0615,0.101,0.004,-0.198,179.5620160777442,1.529564371923487,0.07406921600000387
121938248.0,-0.0322,0.0078,-1.0654,-0.021,0.065,-0.015,179.5619698887863,1.5341297440505843,0.07415486000000386
121951248.0,-0.0298,0.0068,-1.061,-0.082,-0.057,-0.137,179.56219267642533,1.5346034214454876,0.07265450400000387
121964248.0,-0.0288,0.0088,-1.0649,0.162,0.004,-0.015,179.56339442394216,1.5346513253421428,0.07274014800000386
121977248.0,-0.0259,0.0044,-1.0591,-0.265,0.065,0.168,179.56384078297944,1.5325101966778938,0.07520479200000386
121990248.0,-0.0288,0.0093,-1.0659,0.04,-0.118,0.046,179.56292667626025,1.531016511053906,0.07608343600000386
122003248.0,-0.0303,0.0098,-1.0649,-0.265,0.126,-0.015,179.55759776780434,1.5343029860103912,0.07616908000000386
122016248.0,-0.0259,0.0117,-1.0615,-0.021,0.004,0.046,179.5533993365253,1.5313269076295766,0.07704772400000386
122029248.0,-0.0269,0.0059,-1.0586,-0.082,0.065,-0.076,179.55475108427405,1.530347094283646,0.07634036800000386
122042248.0,-0.0322,0.0059,-1.0605,-0.143,-0.057,0.168,179.5553100990749,1.5335027971510962,0.07880501200000387
122055248.0,-0.0293,0.0073,-1.0601,-0.021,0.065,-0.076,179.55589653636608,1.5350304507853738,0.07809765600000387
122068248.0,-0.0303,0.0107,-1.0698,0.223,0.248,0.107,179.5560097025606,1.539641463400851,0.07976930000000387
122081248.0,-0.0312,0.0103,-1.0635,-0.021,0.004,-0.259,179.5533751132653,1.5422127856267231,0.07668294400000387
122094248.0,-0.0308,0.0107,-1.0581,-0.082,0.065,-0.015,179.54952628679274,1.545248286609356,0.07676858800000387
122107248.0,-0.0308,0.0073,-1.0693,0.162,0.004,-0.015,179.5526277088741,1.547097788107745,0.07685423200000387
122120248.0,-0.0288,0.0063,-1.0679,0.101,-0.057,-0.015,179.5559527186623,1.5460321864261892,0.07693987600000386
122133248.0,-0.0283,0.0068,-1.0635,0.101,0.004,0.046,179.5586445332843,1.5453543571599635,0.07781852000000386
122146248.0,-0.0293,0.0127,-1.0601,0.04,0.004,0.168,179.55410482134178,1.545866319117564,0.08028316400000386
122159248.0,-0.0293,0.0093,-1.063,0.04,0.065,-0.137,179.55335815973845,1.5470599057375476,0.07878280800000387
122172248.0,-0.0269,0.0088,-1.0625,-0.021,0.187,0.107,179.55238378915183,1.5472123557069892,0.08045445200000387
122185248.0,-0.0293,0.0068,-1.0664,-0.021,0.126,0.412,179.55361262671585,1.5490561022458695,0.08609109600000386
122198248.0,-0.0273,0.0098,-1.0601,0.101,0.065,0.107,179.55308509431282,1.548111819366593,0.08776274000000386
122211248.0,-0.0288,0.0059,-1.064,0.101,0.187,0.107,179.55680695932597,1.5502477511982358,0.08943438400000386
122224248.0,-0.0278,0.0107,-1.0635,0.223,0.065,-0.076,179.5568340290376,1.5497234857598778,0.08872702800000387
122237248.0,-0.0269,0.0063,-1.061,-0.143,0.126,-0.015,179.55692239005376,1.5490869962388019,0.08881267200000387
122250248.0,-0.0312,0.0088,-1.062,0.04,0.004,-0.259,179.55664940676948,1.551517270225005,0.08572631600000387
122263248.0,-0.0156,0.0112,-1.0811,0.162,-0.057,-0.015,179.55556023850795,1.536000555164145,0.08581196000000386
122276248.0,-0.0244,0.0103,-1.0669,0.284,0.187,-0.015,179.5568557029476,1.533570794493643,0.08589760400000386
122289248.0,-0.0391,0.0039,-1.0503,0.406,-0.301,-0.015,179.56648699922434,1.5414107520113232,0.08598324800000386
122302248.0,-0.042,0.0083,-1.0464,-0.021,-0.362,-0.076,179.56565154941305,1.5516454276822875,0.08527589200000386
122315248.0,-0.0425,0.0078,-1.0444,-0.143,0.187,0.107,179.56380969116591,1.5693054557250983,0.08694753600000386
122328248.0,-0.0225,0.0083,-1.0771,-0.143,0.309,0.046,179.56173256061192,1.5654959057486895,0.08782618000000386
122341248.0,-0.0264,0.0098,-1.0605,-0.021,-0.179,0.046,179.55949234478211,1.560131321017828,0.08870482400000386
122354248.0,-0.0298,0.0098,-1.0581,0.101,0.37,-0.015,179.55882719645524,1.5656123659866108,0.08879046800000386
122367248.0,-0.0273,0.0073,-1.0767,0.04,0.126,-0.015,179.56024208449858,1.564660018409708,0.08887611200000385
122380248.0,-0.0293,0.0083,-1.0581,0.101,0.187,-0.015,179.56118631276263,1.567178402201199,0.08896175600000385
122393248.0,-0.0327,0.0117,-1.0625,-0.021,-0.118,0.046,179.55692799661503,1.5692920593062583,0.08984040000000384
122406248.0,-0.0317,0.0073,-1.0649,0.162,0.248,-0.137,179.55984906240909,1.5748731155754188,0.08834004400000385
122419248.0,-0.0273,0.0098,-1.061,-0.021,-0.118,-0.137,179.55765150637146,1.5710560602065176,0.08683968800000386
122432248.0,-0.0312,0.0132,-1.0591,0.101,0.126,0.046,179.55335493014385,1.574691870092657,0.08771833200000385
122445248.0,-0.0327,0.0122,-1.0718,0.101,0.065,-0.137,179.55038249073564,1.578680824823413,0.08621797600000386
122458248.0,-0.02,0.0024,-1.0752,0.162,0.431,-0.137,179.55873187082938,1.5736176038323597,0.08471762000000387
122471248.0,-0.0381,0.0088,-1.0581,0.101,0.065,-0.442,179.55916484190217,1.583922738153062,0.07925226400000386
122484248.0,-0.0312,0.0044,-1.0654,0.101,0.248,-0.259,179.56438678325065,1.5886583826492728,0.07616590800000386
122497248.0,-0.0361,0.0112,-1.0635,0.345,0.126,-0.442,179.565277846262,1.5970775015119432,0.07070055200000386
122510248.0,-0.0415,-0.0161,-1.0679,0.223,0.492,-3.982,172.3939391813911,1.6156149428721251,0.019215196000003855
122523248.0,0.061,-0.1206,-1.0469,0.59,0.126,-49.697,165.48485499422654,1.5183576900116837,-0.6265651599999961
122536248.0,0.0474,0.165,-1.0313,-0.57,0.065,-35.72,165.58595021611134,1.4365543894867003,-1.090644515999996
122549248.0,-0.0571,0.0303,-1.1177,0.345,0.187,-30.838,165.84742020810506,1.4683814125533425,-1.491257871999996
122562248.0,-0.2412,0.0215,-0.9668,-1.608,-7.747,3.769,166.08435784813096,1.6201240800971988,-1.441980227999996
122575248.0,-0.0176,0.127,-1.0894,1.017,1.774,7.554,166.24249008033206,1.6284158684854004,-1.343497583999996
122588248.0,-0.0137,0.0513,-1.0811,1.2,0.187,13.23,166.47844442047455,1.6124407689757034,-1.1712269399999962
122601248.0,-0.0239,-0.0796,-1.0708,0.04,-2.132,7.187,159.63426359853034,1.5782388207119284,-1.077515295999996
122614248.0,-0.0371,0.0044,-1.0664,-0.448,-1.522,4.746,160.03099374251917,1.5668402686177418,-1.015536651999996
122627248.0,-0.0308,-0.0127,-1.0664,-0.387,-2.315,3.159,153.23894080474074,1.5388019792840582,-0.974189007999996
122640248.0,-0.0352,0.0205,-1.0591,-0.997,-3.841,4.868,153.7391335634818,1.4968624161201785,-0.910624363999996
122653248.0,-0.0391,-0.0269,-1.0664,-3.195,-1.339,9.263,147.05239724179958,1.4915561966541981,-0.789924719999996
122666248.0,-0.0576,0.0107,-1.0493,-7.65,-12.386,8.103,147.6020544792424,1.3664712666413565,-0.684305075999996
122679248.0,-0.0439,0.0132,-1.0596,-14.669,-28.56,7.554,148.04870678185551,1.0224393178563247,-0.5858224319999961
122692248.0,-0.0283,-0.0088,-1.0693,-14.974,-32.528,4.502,141.306245188303,0.6176099810858171,-0.527015787999996
122705248.0,-0.0127,-0.0337,-1.0801,-12.533,-33.016,2.915,134.75604276240594,0.1978072111736551,-0.48884014399999604
122718248.0,-0.0161,0.0044,-1.0693,-11.434,-43.209,3.647,135.51038850572115,-0.3396729016907396,-0.44114849999999606
122731248.0,0.0054,-0.0024,-1.064,-7.833,-51.571,-0.442,129.10282407619115,-0.9960030836283998,-0.44661385599999603
122744248.0,0.0269,0.0078,-1.0664,-8.566,-51.021,0.718,130.0031062939382,-1.6552828735648153,-0.43699921199999603
122757248.0,0.0527,-0.0083,-1.043,-5.026,-42.843,0.474,123.74798271165955,-2.2261394868887847,-0.43055656799999603
122770248.0,0.042,-0.0093,-1.0591,-3.439,-48.031,-5.508,117.63912326298866,-2.8392423028365874,-0.501879923999996
122783248.0,0.0215,0.0269,-1.0796,-3.256,-57.674,-7.4,118.81616389588302,-3.5403282110312078,-0.597799279999996
122796248.0,0.0493,-0.0527,-1.0708,-6.307,-67.318,-10.818,112.81569181706283,-4.380103867654666,-0.738152635999996
122809248.0,0.0684,-0.0205,-1.0957,-1.791,-74.215,-11.611,106.9578486412312,-5.30972389372606,-0.888814991999996
122822248.0,0.0859,-0.0244,-1.1382,8.402,-77.083,-16.189,101.35014578117418,-6.272159172516603,-1.098991347999996
122835248.0,0.1431,0.0146,-1.0996,10.966,-87.642,-19.668,103.04748663469638,-7.411849581864149,-1.354394703999996
122848248.0,0.3901,-0.146,-0.8433,-33.895,-130.367,-7.278,97.15100996201288,-9.414857986078157,-1.4487280599999959
122861248.0,0.2466,0.0605,-1.3413,-19.674,-111.08,9.812,98.50554191601643,-10.850158013348612,-1.3208914159999958
122874248.0,0.1509,0.0356,-1.0317,-10.641,-129.451,-1.541,99.96019027215132,-12.448981896489165,-1.3406437719999957
122887248.0,0.2964,0.0312,-1.0166,-8.016,-126.094,-5.264,101.42355589043986,-14.131679874443249,-1.4087951279999957
122900248.0,0.3115,-0.0352,-1.0347,-3.5,-132.137,-0.625,95.78931423841,-15.867674244593331,-1.4166394839999956
122913248.0,0.3237,-0.043,-1.0752,2.665,-131.71,0.779,90.35313473491443,-17.563446129694707,-1.4062318399999956
122926248.0,0.2734,-0.0239,-1.0479,10.844,-123.165,1.511,85.11020655535982,-19.073973049529403,-1.3863081959999957
122939248.0,0.2432,0.0464,-1.0337,13.529,-117.427,0.779,87.12881032718028,-20.453335693739998,-1.3759005519999956
122952248.0,0.3154,0.0317,-1.019,14.078,-116.878,-2.151,89.12980211837198,-21.877397551755465,-1.4035829079999955
122965248.0,0.3999,0.041,-0.9141,9.196,-124.508,-7.583,91.01285094190132,-23.498520083399036,-1.5018812639999954
122978248.0,0.4785,0.0508,-0.855,-4.537,-133.846,-10.574,92.66663867432031,-25.317851471693025,-1.6390626199999954
122991248.0,0.5269,-0.0596,-0.8721,-13.265,-139.522,-8.438,87.12235198816057,-27.210902599083767,-1.7484759759999953
123004248.0,0.5571,-0.1123,-0.9814,-24.618,-149.959,-10.086,81.59668001491926,-29.16589658916081,-1.8793133319999953
123017248.0,0.4829,-0.0215,-0.9434,-22.238,-154.903,-6.301,76.1073960795737,-31.098348312764504,-1.9609456879999954
123030248.0,0.4849,-0.0151,-1.0249,-16.317,-148.983,-5.813,70.79410228973497,-32.881064842223786,-2.0362340439999955
123043248.0,0.5181,0.0234,-1.04,-7.894,-137.264,-4.531,72.85172292569652,-34.501989602504025,-2.0948563999999954
123056248.0,0.542,-0.0322,-0.894,-0.692,-138.179,-5.569,67.82697901595631,-36.19685293090499,-2.1669727559999954
123069248.0,0.5811,-0.082,-0.7681,-3.011,-155.391,-10.269,62.953803124305516,-38.191949699794,-2.3001891119999955
123082248.0,0.6543,-0.0254,-0.8164,-14.425,-148.006,-13.992,57.94644401304191,-40.0879354478077,-2.4818044679999955
123095248.0,0.6475,-0.0576,-0.8496,-17.965,-132.747,-16.189,53.036062515798015,-41.72263804293921,-2.6919808239999954
123108248.0,0.6372,-0.1108,-0.8359,-7.345,-126.522,-17.41,48.43262974097312,-43.241922974415516,-2.9180301799999953
123121248.0,0.6504,-0.1133,-0.79,8.89,-126.766,-18.447,44.14031826504293,-44.77594480193362,-3.157560535999995
123134248.0,0.6885,-0.1133,-0.6328,14.872,-132.869,-24.917,40.049852034189776,-46.51273525200209,-3.481200891999995
123147248.0,0.7129,-0.0894,-0.5444,3.153,-148.189,-30.654,35.87538987061702,-48.515997813111824,-3.879422247999995
123160248.0,0.7705,-0.0845,-0.5273,-13.082,-160.396,-32.241,31.57315361256402,-50.694905647885896,-4.298274603999995
123173248.0,0.7896,-0.1396,-0.5386,-22.848,-171.016,-31.387,27.34107327726168,-52.956630393844094,-4.706024959999995
123186248.0,0.7886,-0.085,-0.6484,-29.44,-172.481,-28.64,22.968405726913012,-55.1018537843071,-5.078064315999995
123199248.0,0.8379,-0.0122,-0.7495,-29.196,-161.983,-20.217,18.555582580251333,-57.02744666000192,-5.340604671999995
123212248.0,0.8794,-0.0498,-0.7432,-17.416,-145.687,-18.569,14.439112447451752,-58.73794030546988,-5.581721027999995
123225248.0,0.8818,-0.0879,-0.6138,-4.843,-142.696,-19.058,10.651475452601787,-60.479141440327865,-5.829194383999996
123238248.0,0.8887,-0.1411,-0.4219,-3.378,-157.406,-23.208,7.165100569209846,-62.543367754557366,-6.1306177399999955
123251248.0,0.8657,-0.1787,-0.3711,-7.04,-180.782,-30.96,3.8462147308898005,-64.8870711232697,-6.532817095999995
123264248.0,0.9668,-0.1509,-0.3838,-7.345,-182.491,-34.072,0.5048348988739328,-67.2525341647732,-6.9754724519999955
123277248.0,0.8726,-0.1172,-0.3789,-3.011,-168.331,-35.964,-2.8000169844283382,-69.3634613092395,-7.442723807999996
123290248.0,0.8989,-0.1265,-0.4316,-5.453,-167.965,-34.133,-6.086924445011736,-71.38474616199211,-7.886172163999996
123303248.0,1.1001,-0.0679,-0.4624,-12.716,-137.02,-15.151,-9.56026166137508,-73.04263178518049,-8.082854519999996
123316248.0,1.0776,-0.1675,-0.3765,-16.012,-116.146,-1.968,-12.69352501141189,-74.44323179751463,-8.108157875999996
123329248.0,0.9902,-0.2319,-0.2827,-7.65,-130.062,-9.78,-15.3500210548442,-76.0063023429807,-8.235017231999997
123342248.0,1.022,-0.1992,-0.2617,-1.669,-140.865,-13.076,-17.91888163052033,-77.72431745339499,-8.404724587999997
123355248.0,0.9668,-0.165,-0.2388,-0.509,-131.466,-10.452,-20.474283281329104,-79.31077807508387,-8.540319943999997
123368248.0,0.8892,-0.1953,-0.1831,0.712,-117.305,-11.123,-22.718943054660556,-80.68421598824754,-8.684638299999996
123381248.0,0.9058,-0.1831,-0.2456,10.355,-106.807,-13.137,-24.998684324623497,-81.85783587467708,-8.855138655999996
123394248.0,0.959,-0.1797,-0.1968,18.839,-101.741,-17.898,-27.01086061108426,-83.00654728526214,-9.087532011999995
123407248.0,1.0029,-0.1724,-0.106,19.51,-101.497,-21.926,-28.653939919842465,-84.21160574227765,-9.372289367999995
123420248.0,1.0195,-0.1777,-0.0308,13.651,-107.601,-22.476,-29.90375932042173,-85.49786711691382,-9.664196723999995
123433248.0,0.9888,-0.1919,0.0112,5.289,-119.442,-23.33,-30.9716471550812,-86.88986825275568,-9.967206079999995
123446248.0,0.8408,-0.0483,0.5093,-31.576,-175.228,-28.945,-30.862991513053696,-88.55840019410884,-10.343210435999994
123459248.0,0.98,-0.2847,-0.0859,-42.684,-212.215,-33.645,-32.925468276957886,-90.95354091258557,-10.780314791999995
123472248.0,1.0273,-0.1055,-0.0762,-16.683,-126.217,-19.912,-34.99644205409156,-92.39836971133639,-11.038890147999995
123485248.0,0.9194,-0.1904,0.0698,-4.171,-116.146,-16.677,-35.7471454291982,-93.58162569823556,-11.255410503999995
123498248.0,0.9434,-0.1836,0.1445,-9.542,-120.418,-19.668,-36.18983548797461,-94.76621113472187,-11.510813859999995
123511248.0,0.96,-0.1982,0.1099,-6.124,-120.479,-16.677,-36.76404857909249,-95.94042669460188,-11.727334215999996
123524248.0,1.0024,-0.2026,0.1353,-1.119,-120.235,-15.823,-37.168458140124635,-97.0804980498627,-11.932752571999995
123537248.0,0.9688,-0.2402,0.1919,-0.387,-122.86,-16.006,-37.457728924897935,-98.15228651828643,-12.140549927999995
123550248.0,0.9673,-0.2344,0.2524,-0.265,-127.193,-17.349,-37.56974717756054,-99.2179574976889,-12.365806283999994
123563248.0,0.9731,-0.2412,0.2764,-2.157,-132.137,-19.18,-37.668171881093045,-100.30420362235695,-12.614865639999994
123576248.0,1.0024,-0.2451,0.2881,-7.101,-136.104,-23.025,-37.81321120413797,-101.41890021995188,-12.913909995999994
123589248.0,0.9507,-0.2349,0.3481,-18.759,-145.565,-23.025,-37.97631998103387,-102.56867442503503,-13.212954351999993
123602248.0,0.9136,-0.2134,0.3184,-29.196,-151.729,-19.058,-38.265520157805184,-103.7954141288779,-13.460427707999994
123615248.0,0.9004,-0.2041,0.3101,-32.308,-154.598,-13.931,-38.57900076881865,-105.04124565451939,-13.641250063999994
123628248.0,0.8735,-0.2324,0.3794,-26.937,-157.772,-11.856,-38.780534963252904,-106.21088581518595,-13.795097419999994
123641248.0,0.8345,-0.3203,0.4824,-31.393,-172.847,-14.358,-39.07668087942277,-107.39390318410972,-13.981470775999995
123654248.0,0.8086,-0.2729,0.4976,-37.374,-185.299,-19.79,-39.346276912027314,-108.70576095579003,-14.238460131999995
123667248.0,0.8198,-0.1938,0.4106,-42.013,-186.397,-18.508,-39.60008490726314,-110.12704787411296,-14.478783487999994
123680248.0,0.7832,-0.1685,0.374,-33.773,-170.345,-12.893,-39.72356463643782,-111.3421249182311,-14.646111843999995
123693248.0,0.7598,-0.1646,0.4434,-25.778,-151.668,-5.813,-39.66497512049384,-112.2097913523401,-14.721400199999994
123706248.0,0.6885,-0.2168,0.562,-19.735,-142.452,-5.142,-39.54514602665052,-112.75707520411326,-14.787965555999994
123719248.0,0.6919,-0.2012,0.6128,-22.726,-145.809,-5.874,-39.407451496545015,-113.30003090072196,-14.864046911999994
123732248.0,0.6577,-0.2251,0.645,-22.177,-152.401,-3.067,-39.28675828109138,-113.85416434669722,-14.903637267999994
123745248.0,0.6108,-0.2236,0.6606,-22.115,-160.64,0.107,-39.15691603377393,-114.44816830648823,-14.901965623999994
123758248.0,0.584,-0.25,0.6987,-17.477,-168.026,0.657,-38.99033536127693,-115.06418887083244,-14.893143979999994
123771248.0,0.5742,-0.2158,0.6865,-11.862,-172.908,0.351,-38.71080841519136,-115.73778913091746,-14.888300335999995
123784248.0,0.5469,-0.1743,0.6973,1.139,-170.894,2.121,-38.20291659564341,-116.34586629429974,-14.860446691999995
123797248.0,0.4854,-0.2002,0.7085,11.942,-158.504,-0.259,-37.60243892851855,-116.70651592686197,-14.863533047999995
123810248.0,0.4893,-0.1826,0.7158,24.943,-144.893,0.412,-36.81898309474347,-116.88899285758322,-14.857896403999995
123823248.0,0.4697,-0.1772,0.7646,29.703,-132.686,-2.029,-35.96530099776008,-116.85989168313172,-14.883992759999995
123836248.0,0.4712,-0.2246,0.8091,32.511,-123.226,-4.47,-35.14223883066828,-116.6788710013188,-14.941822115999994
123849248.0,0.4053,-0.2471,0.8501,31.656,-120.479,-10.269,-34.36039865910476,-116.37247359821814,-15.075038471999994
123862248.0,0.3989,-0.2549,0.8594,28.055,-123.531,-14.968,-33.6463285277909,-116.09888341592118,-15.269341827999995
123875248.0,0.3726,-0.251,0.8154,28.422,-123.714,-16.372,-32.953647513756835,-115.82516274606118,-15.481897183999994
123888248.0,0.313,-0.2139,0.7485,37.272,-105.404,-17.166,-32.138846867880005,-115.28987549190819,-15.704774539999994
123901248.0,0.2695,-0.1724,0.7793,37.882,-79.83,-11.123,-31.2630883245385,-114.37456027526719,-15.849092895999993
123914248.0,0.2666,-0.1772,0.7715,35.929,-56.759,-2.761,-30.438949753942804,-113.18273362759281,-15.884705251999993
123927248.0,0.2617,-0.2441,0.8008,35.441,-39.241,1.267,-29.717847012644324,-111.76648567289918,-15.867953607999993
123940248.0,0.249,-0.2261,0.7891,34.769,-24.715,4.441,-29.000452839971942,-110.18381451894187,-15.809939963999993
123953248.0,0.2261,-0.2583,0.7651,38.981,-6.527,6.76,-28.297071507456124,-108.37642129160375,-15.721779319999992
123966248.0,0.231,-0.228,0.7734,37.821,13.066,8.713,-27.577952172368164,-106.36245633796801,-15.608229675999992
123979248.0,0.2485,-0.2339,0.7881,28.116,36.503,11.521,-26.998951271537475,-104.1068359801992,-15.458176031999992
123992248.0,0.2661,-0.2256,0.7837,13.468,62.87,16.77,-26.608724358055866,-101.58545159774211,-15.239885387999992
124005248.0,0.3291,-0.2261,0.7461,3.336,92.289,24.094,-26.37137900143179,-98.83600130528822,-14.926382743999993
124018248.0,0.3433,-0.2881,0.7666,2.238,120.365,29.099,-26.22752806306936,-95.7809892481829,-14.547815099999992
124031248.0,0.3955,-0.3193,0.7749,2.238,142.643,31.479,-26.12249969412607,-92.55364081739069,-14.138307455999993
124044248.0,0.3984,-0.3398,0.8218,2.054,158.696,30.198,-26.023315607352632,-89.16372463023737,-13.745452811999993
124057248.0,0.4526,-0.3042,0.8682,-7.284,169.743,27.268,-25.98198536628435,-85.74214578687214,-13.390688167999993
124070248.0,0.4858,-0.2686,0.8154,-20.773,173.222,27.756,-26.09178952461502,-82.41083273076137,-13.029579523999994
124083248.0,0.5542,-0.2393,0.7178,-23.947,189.823,29.404,-26.24393438977603,-79.06898308459094,-12.647046879999994
124096248.0,0.5693,-0.2715,0.6807,-16.256,217.167,33.31,-26.361201925381973,-75.47801432172696,-12.213736235999994
124109248.0,0.6299,-0.2432,0.6646,-11.862,224.736,40.696,-26.38723499295366,-71.93903487724201,-11.684407591999994
124122248.0,0.6504,-0.271,0.6406,-4.965,229.863,45.701,-26.38150039522037,-68.43365601148083,-11.090013947999994
124135248.0,0.7192,-0.2144,0.6328,-3.439,225.895,49.729,-26.27217181482001,-65.12953457913794,-10.443256303999995
124148248.0,0.7983,-0.248,0.583,-5.087,228.825,52.536,-26.272570142338797,-61.94327451614361,-9.760007659999994
124161248.0,0.8003,-0.2427,0.5869,-9.359,230.839,55.222,-26.315831390344215,-58.79511716126722,-9.041841015999994
124174248.0,0.8604,-0.1675,0.5503,-11.19,236.882,60.349,-26.270807775193067,-55.72633116872736,-8.257023371999994
124187248.0,0.8408,-0.1685,0.3569,-11.251,258.366,72.129,-26.394338004608684,-52.61760190725251,-7.319065727999994
124200248.0,0.9302,-0.2051,0.3579,5.594,279.606,80.796,-26.391643028064514,-49.325059410332464,-6.268437083999994
124213248.0,0.9482,-0.2407,0.4131,2.421,287.114,83.42,-26.437675051676486,-45.9458489867565,-5.183696439999994
124226248.0,1.0425,-0.3931,0.5781,-10.58,266.423,70.786,-26.72816295666247,-42.75608805889877,-4.263197795999994
124239248.0,1.0576,-0.2285,0.5498,-44.76,237.004,55.039,-27.215352059433062,-40.09426836694444,-3.5474101519999937
124252248.0,1.0596,-0.1753,0.2212,-74.545,228.886,48.691,-28.3888306348291,-37.878363358879064,-2.9141465079999938
124265248.0,1.0308,-0.064,-0.0762,-63.986,244.755,53.94,-31.435850023321603,-35.69262857212497,-2.2126458639999935
124278248.0,0.9492,-0.0107,-0.1553,-35.726,271.794,63.889,-34.78360351593973,-33.13014262761424,-1.3818082199999935
124291248.0,0.9517,0.0034,-0.2769,-2.279,308.537,70.908,-30.531184675103354,-30.012598354845238,-0.4597235759999936
124304248.0,1.0469,-0.1802,0.0278,25.065,326.725,62.424,-31.225980820221203,-26.85256859364302,0.35206906800000637
124317248.0,1.0532,-0.2261,0.5127,-27.303,277.348,42.344,-31.4253987068291,-24.02210449696023,0.9028217120000064
124330248.0,0.9971,-0.1406,0.3672,-103.17,208.744,23.118,-32.53046000579142,-22.252130265586292,1.2036363560000063
124343248.0,0.9141,-0.0835,-0.1143,-133.871,188.42,13.657,-36.46252861761727,-21.03086005003625,1.3814580000000063
124356248.0,0.9448,-0.063,-0.4985,-116.354,197.026,14.39,-40.671720888764575,-19.340324717184185,1.5688086440000062
124369248.0,0.9482,-0.1206,-0.6333,-69.723,226.872,16.831,-44.13107042925156,-17.179227057906417,1.787892288000006
124382248.0,0.895,-0.0649,-0.542,-19.674,252.934,15.0,-46.96268111952807,-14.785965947470824,1.983172932000006
124395248.0,0.8599,-0.0942,-0.2808,-9.725,250.309,9.079,-49.37657175831589,-12.721493606074946,2.101480576000006
124408248.0,0.938,-0.1636,-0.0093,-49.459,209.355,-7.644,-50.884367637758395,-11.401988438207946,2.0023892200000057
124421248.0,0.9209,-0.0669,-0.1294,-95.114,158.757,-14.724,-54.13180097881666,-10.771903067313803,1.8112578640000057
124434248.0,0.9536,-0.0342,-0.502,-102.255,146.611,-1.113,-57.87409475905443,-9.932570098363621,1.7970695080000056
124447248.0,1.0503,-0.1577,-0.9209,-69.906,166.752,11.643,-61.01301651838446,-8.576691233257364,1.9487091520000057
124460248.0,0.9497,-0.0713,-0.9565,-13.448,207.402,21.164,-63.4789708725166,-6.6574741571518485,2.2241217960000057
124473248.0,0.8989,-0.1958,-0.7368,15.116,230.29,16.526,-65.31932186946948,-4.584686504774344,2.4392404400000056
124486248.0,0.9033,-0.1616,-0.5288,4.557,227.116,12.375,-67.21516775009528,-2.7703834728058294,2.6003960840000055
124499248.0,0.8262,-0.1289,-0.5625,-11.74,216.435,9.079,-69.36244492582561,-1.0592205346320518,2.7187037280000057
124512248.0,0.7031,-0.1216,-0.7588,-6.613,220.219,2.976,-71.47750641231217,0.9181394924073286,2.757672372000006
124525248.0,0.627,-0.083,-0.8428,15.421,228.886,-1.907,-73.33915327086055,3.0851902786302485,2.733162016000006
124538248.0,0.5664,-0.0649,-0.8423,35.38,231.877,-1.297,-74.93365825754437,5.300502771218594,2.716581660000006
124551248.0,0.6167,-0.0547,-0.7739,43.925,229.069,-5.569,-76.39466965237771,7.342921669560335,2.644465304000006
124564248.0,0.6763,-0.0698,-0.791,37.882,220.463,-6.24,-77.883451109106,9.196058211337274,2.563625948000006
124577248.0,0.6904,-0.0303,-0.9399,37.882,219.609,0.046,-79.40638578133365,11.083966154763912,2.5645045920000062
124590248.0,0.5894,-0.0181,-0.894,48.014,217.106,10.361,-80.78351157747704,12.96010713700466,2.6994782360000062
124603248.0,0.5195,-0.019,-0.9756,57.596,217.228,17.075,-82.01190320451482,14.907486800826561,2.9217338800000063
124616248.0,0.4727,-0.0327,-1.1045,71.573,222.477,21.714,-83.02605787817166,16.980186474673044,3.2042965240000063
124629248.0,0.3579,-0.0278,-1.0327,65.531,220.341,22.568,-84.09998050334707,19.06526923611174,3.4979611680000064
124642248.0,0.3569,0.0088,-1.085,76.334,237.98,22.69,-77.85492859846497,21.351384644976715,3.7932118120000062
124655248.0,0.2817,0.0386,-1.0132,65.836,241.398,25.315,-71.90286337274483,23.688937909738563,4.122587456000006
124668248.0,0.1958,0.1069,-1.0498,51.31,242.619,32.151,-66.32755223446321,26.09559565779908,4.540831100000006
124681248.0,0.1587,0.1299,-1.0986,39.713,250.492,38.559,-61.03007503147325,28.60138251903351,5.042378744000006
124694248.0,0.0747,0.0942,-0.9917,23.051,249.882,44.236,-56.02447587837295,31.12678911634318,5.617727388000006
124707248.0,0.0146,0.0566,-0.8516,-5.575,249.882,34.775,-51.45121015555479,33.66785594095656,6.070083032000006
124720248.0,0.0107,0.0239,-1.0117,-21.505,238.285,25.437,-47.123374281286395,36.01784062763014,6.401044676000006
124733248.0,-0.0439,0.0298,-1.0537,-12.289,238.53,22.202,-42.77001700280115,38.38375789627605,6.689951320000006
124746248.0,-0.1401,0.043,-0.9409,-12.716,227.482,17.685,-38.52910049831477,40.68311827272779,6.920136964000005
124759248.0,-0.1958,0.1011,-0.9355,-15.402,216.618,15.244,-34.478249936466604,42.86397235941365,7.118589608000005
124772248.0,-0.1904,0.0244,-0.9736,-19.369,206.913,9.751,-30.46430750352685,44.86370882806726,7.245633252000005
124785248.0,-0.1665,0.0298,-1.1558,-12.533,213.2,9.385,-26.44437938645095,46.84620370434269,7.367918896000004
124798248.0,-0.3813,0.0576,-1.1753,-3.256,244.084,16.831,-22.413237254129452,49.37770318043547,7.587002540000005
124811248.0,-0.481,0.0625,-0.9473,-3.195,257.267,16.648,-18.48132045942208,52.204825045428606,7.803707184000005
124824248.0,-0.4224,-0.2822,-0.8755,0.773,259.22,6.394,-21.344681171301914,54.95619132689856,7.887109828000005
124837248.0,-0.5239,0.1416,-0.9111,7.975,246.83,2.854,-17.393015794561283,57.593491254412015,7.924492472000005
124850248.0,-0.4434,0.019,-0.8911,20.243,227.116,-6.362,-13.21183813230401,59.86376902737299,7.842067116000005
124863248.0,-0.502,0.0513,-0.8154,25.126,219.365,-8.255,-9.099644269271192,62.09226987462559,7.7350327600000055
124876248.0,-0.5811,0.064,-0.7437,24.821,203.74,-9.902,-5.09995164221923,64.20378393223552,7.606587404000005
124889248.0,-0.564,0.0942,-0.7788,27.201,194.035,-14.236,-1.1894953936878,66.10570638516124,7.421800048000005
124902248.0,-0.5474,0.064,-0.729,33.549,195.195,-10.757,2.761215392678947,68.00602360181998,7.282239692000005
124915248.0,-0.5757,0.1094,-0.7026,35.868,188.664,-1.358,6.585794251139977,69.82908194842328,7.264866336000005
124928248.0,-0.6421,0.1006,-0.6553,25.309,199.772,4.136,10.201810724141149,71.85897282579973,7.318914980000005
124941248.0,-0.8159,0.145,-0.5737,9.562,187.199,6.882,13.435761560815527,73.88737700267357,7.408661624000005
124954248.0,-0.8389,0.1167,-0.6333,6.388,174.992,8.103,16.639461855372108,75.68851752987644,7.514281268000005
124967248.0,-0.8691,0.0361,-0.5894,-4.904,172.123,7.248,19.773948347706327,77.48342276394716,7.6087859120000045
124980248.0,-0.8682,0.0459,-0.6431,-3.805,159.55,2.732,22.848195653263552,79.03416726230775,7.644582556000005
124993248.0,-0.8809,0.0532,-0.5112,0.101,136.845,0.229,25.873543091040254,80.39136762167895,7.6478402000000045
125006248.0,-0.8892,0.0635,-0.499,-5.575,127.385,-0.808,28.73985437377819,81.6161913410007,7.6376168440000045
125019248.0,-0.8877,0.0854,-0.4751,-13.021,111.698,-2.7,31.39521695444339,82.63587647415157,7.602797488000005
125032248.0,-0.8867,0.1001,-0.4497,-14.913,92.656,1.145,33.926191155305375,83.41419882882639,7.617963132000004
125045248.0,-0.8955,0.1157,-0.457,-12.045,75.81,6.394,36.40992075430009,83.95616700203416,7.701365776000005
125058248.0,-0.9087,0.1006,-0.4575,-9.176,69.096,9.751,38.916642179417266,84.41161605785265,7.828409420000004
125071248.0,-0.9092,0.125,-0.417,-3.866,64.823,11.826,41.35517473074751,84.83722606185253,7.982428064000004
125084248.0,-0.9644,0.0806,-0.3423,-1.73,55.18,10.544,43.84088504516964,85.24250116829025,8.119780708000004
125097248.0,-0.9702,0.0757,-0.3506,-5.697,43.766,8.042,46.2476583280983,85.48915325972976,8.224607352000003
125110248.0,-0.9683,0.0713,-0.4019,-8.688,32.048,6.028,48.61067061394352,85.53022251876381,8.303251996000004
125123248.0,-0.9731,0.0566,-0.4009,-7.467,26.921,5.173,50.982457806297944,85.51048556948675,8.370781640000004
125136248.0,-0.9458,0.0742,-0.3892,-6.002,14.592,4.99,53.27031879824688,85.33129359959875,8.435932284000003
125149248.0,-0.9224,0.0723,-0.3569,-3.988,7.145,5.6,55.5249187827007,85.08453447330125,8.509012928000002
125162248.0,-0.9243,0.0527,-0.3638,-5.453,1.774,3.953,57.77994977297631,84.77139345159891,8.560682572000003
125175248.0,-0.9766,0.0498,-0.3521,-5.819,-9.456,2.121,59.98906069301217,84.35504625498737,8.588536216000003
125188248.0,-1.0176,0.063,-0.3301,-6.49,-31.856,1.511,62.090347196089645,83.69629475876484,8.608459860000004
125201248.0,-0.9868,0.0532,-0.3921,-8.444,-46.505,-0.381,64.18628089069509,82.79260021356131,8.603787504000003
125214248.0,-0.9409,0.0337,-0.4009,-10.702,-55.172,-3.799,66.26996206393335,81.77054781279541,8.554681148000004
125227248.0,-0.937,0.0723,-0.3467,-11.678,-75.557,-3.799,68.16004594595753,80.55814492860333,8.505574792000004
125240248.0,-0.9194,0.0542,-0.3716,-11.312,-95.455,-2.883,70.08661307804107,79.08623754736436,8.468376436000005
125253248.0,-0.937,0.084,-0.3213,-12.106,-124.874,-1.113,71.8374741980038,77.32300970159163,8.454188080000005
125266248.0,-0.9077,0.123,-0.2754,-14.12,-166.378,2.915,73.33935406773585,75.08897819273751,8.492363724000006
125279248.0,-0.855,0.1431,-0.2041,-18.759,-226.864,12.558,74.53272170925185,72.17158620234088,8.655898368000006
125292248.0,-0.6128,0.0635,-0.5259,-33.529,-249.019,17.441,76.0770613866505,68.53853972196863,8.882912012000006
125305248.0,-0.7676,-0.042,-0.5386,-48.483,-246.822,13.047,70.42687570226826,65.12020734096038,9.052803656000005
125318248.0,-0.7046,-0.02,-0.7925,-42.074,-250.911,10.727,64.91107928959401,61.453518909420424,9.192535300000005
125331248.0,-0.6997,-0.0239,-0.7837,-22.848,-250.545,6.089,59.7565606074065,57.86712704560367,9.271972944000005
125344248.0,-0.6953,0.0176,-0.6621,-10.336,-257.137,0.046,61.999146091536865,54.361385397342445,9.272851588000005
125357248.0,-0.6294,-0.0244,-0.6641,-15.707,-272.396,-3.982,57.00099065837843,50.67241985303021,9.221366232000005
125370248.0,-0.5068,-0.0747,-0.7915,-27.12,-282.65,-8.255,52.023142594140204,46.70804319529481,9.114331876000005
125383248.0,-0.3872,-0.0396,-0.8901,-36.886,-299.068,-7.278,46.96355057722934,42.43323614879456,9.019998520000005
125396248.0,-0.3149,-0.0674,-1.0396,-36.154,-294.552,0.168,42.037717488702114,38.16805574342571,9.022463164000005
125409248.0,-0.3149,-0.0757,-1.0732,-27.609,-295.223,3.647,37.32577093619992,33.969549240908286,9.070154808000005
125422248.0,-0.3184,-0.0859,-1.2178,-9.115,-275.325,-0.076,32.94367724117677,30.074574754546614,9.069447452000006
125435248.0,-0.2979,-0.062,-1.2212,6.693,-228.328,-8.316,28.828051431235764,26.83773197977424,8.961620096000006
125448248.0,-0.2739,-0.0391,-1.0508,11.454,-217.037,-14.358,24.8398849198292,23.827630165608145,8.775246740000005
125461248.0,-0.2109,-0.0005,-0.9331,11.942,-230.098,-16.311,20.895693331194984,20.674056380964565,8.563484384000006
125474248.0,-0.1621,0.0283,-0.792,8.158,-268.367,-16.372,24.140634564624037,17.072484159816725,8.350929028000007
125487248.0,-0.0493,0.0,-0.8784,1.932,-315.792,-15.029,27.28228654629156,12.77179781812721,8.155832672000006
125500248.0,0.0386,-0.0029,-0.9175,-2.218,-329.708,-14.236,23.111856443797386,8.267407530463448,7.971045316000006
125513248.0,0.1216,0.0225,-0.9888,-4.049,-337.886,-12.344,26.171815404533586,3.6569166086563007,7.8108539600000055
125526248.0,0.2568,-0.0322,-1.1792,-2.645,-312.923,-12.1,22.045816129762514,-0.648780415481687,7.653834604000005
125539248.0,0.2056,-0.0562,-1.1284,4.435,-293.636,-10.452,18.11827794467948,-4.583296550015357,7.518239248000006
125552248.0,0.2974,-0.0654,-1.1558,18.046,-289.913,-10.818,14.45044104845713,-8.47357009621573,7.377885892000005
125565248.0,0.3584,-0.0396,-1.0703,27.018,-279.72,-16.067,10.947870909039981,-12.238061095940163,7.169295536000005
125578248.0,0.4111,0.0005,-0.9609,28.483,-271.053,-18.569,14.691041631841436,-15.910060443569634,6.928179180000005
125591248.0,0.4624,0.0122,-0.8267,17.557,-280.513,-20.828,18.20383838530953,-19.7502290092522,6.6576958240000055
125604248.0,0.5576,0.04,-0.7388,-2.706,-291.439,-22.048,21.34315669433045,-23.808508887191657,6.371352468000006
125617248.0,0.6479,0.0391,-0.792,-25.778,-299.801,-20.339,24.131206378999543,-27.93711487726703,6.1072261120000055
125630248.0,0.7021,0.0332,-0.8691,-43.478,-300.167,-16.311,26.650770322150933,-31.981043485941818,5.895463756000005
125643248.0,0.7852,0.0068,-0.9897,-49.215,-285.701,-12.527,29.082733611335218,-35.750083416604475,5.732893400000005
125656248.0,0.8271,-0.02,-0.9268,-45.736,-272.579,-7.461,24.342977887734083,-39.34282986603095,5.636181044000005
125669248.0,0.8574,-0.062,-0.7754,-41.281,-268.673,-6.729,19.821480817903588,-42.934843995365576,5.548984688000005
125682248.0,0.8926,-0.0894,-0.522,-49.215,-274.288,-6.973,15.392271868892951,-46.757236973349734,5.458616332000005
125695248.0,0.9375,-0.0869,-0.3735,-76.132,-294.368,-10.391,10.776308674517566,-50.927702412496856,5.323813976000006
125708248.0,0.9844,-0.0835,-0.4404,-105.001,-303.524,-12.405,5.837638069445996,-55.08669520558445,5.1628296200000054
125721248.0,0.9907,-0.1099,-0.4595,-130.026,-307.43,-9.841,0.7332235147692296,-59.19198818604053,5.035177264000006
125734248.0,0.9814,-0.1177,-0.5137,-143.82,-305.355,-6.607,-4.455757159292562,-63.133948973861564,4.949566908000006
125747248.0,1.0078,-0.1401,-0.5557,-148.336,-308.651,-11.245,-9.573587477621029,-67.01128000463521,4.803662552000006
125760248.0,0.9805,-0.186,-0.5557,-131.613,-298.397,-15.884,-14.288893110826399,-70.6556271846429,4.597451196000006
125773248.0,1.0464,-0.1411,-0.3569,-117.33,-311.397,-28.762,-18.66662231182478,-74.60718358849905,4.223825840000006
125786248.0,1.0649,-0.2246,-0.3608,-96.639,-328.853,-14.297,-22.486569878458386,-78.6697866933665,4.038245484000006
125799248.0,1.0923,-0.1978,-0.2178,-79.672,-341.671,-5.63,-25.80711137769394,-82.94807317291382,3.9653361280000063
125812248.0,1.0327,-0.1582,-0.2681,-71.005,-352.108,-5.996,-29.184843181057044,-87.23976458087783,3.8876687720000063
125825248.0,1.1738,-0.1162,-0.3892,-2.096,-270.87,-19.302,-31.895526738197013,-90.36439804773306,3.637023416000006
125838248.0,0.9092,-0.0088,0.2715,-28.951,-234.737,-4.959,-31.663729967331488,-93.01526051050844,3.572837060000006
125851248.0,1.0161,-0.1699,0.1372,-32.369,-234.188,-2.517,-32.46454446656291,-95.69621403423123,3.540396704000006
125864248.0,1.0488,-0.2368,-0.0093,11.759,-210.079,2.732,-33.510574093438684,-98.00433958159127,3.576193348000006
125877248.0,1.0254,-0.23,0.1909,44.169,-188.411,13.474,-33.283945095596536,-99.91987575024194,3.751635992000006
125890248.0,0.7983,-0.209,0.5776,35.197,-198.848,-0.381,-32.56785056179171,-101.50356749609574,3.746963636000006
125903248.0,0.7563,-0.0908,0.5625,1.932,-209.285,-11.734,-32.075423129012115,-103.20020755368988,3.594702280000006
125916248.0,0.8301,-0.0688,0.3555,-25.289,-206.234,-15.213,-31.975306741110725,-105.09257371283722,3.397213924000006
125929248.0,0.9043,-0.1279,0.1948,-17.416,-179.256,-13.687,-32.22358415917041,-106.78572622414282,3.219563568000006
125942248.0,0.8716,-0.1968,0.4238,4.618,-156.978,-12.954,-32.01860297984586,-107.88628931218906,3.051442212000006
125955248.0,0.7866,-0.1724,0.6274,5.839,-151.973,-12.588,-31.611286844621503,-108.67305927772236,2.888078856000006
125968248.0,0.8682,-0.123,0.5264,-3.866,-141.719,-8.255,-31.291501219961173,-109.46722761172933,2.781044500000006
125981248.0,0.8931,-0.1655,0.4795,-0.57,-131.527,-0.747,-31.053925515018914,-110.16192125567807,2.7716141440000057
125994248.0,0.7954,-0.147,0.5327,2.726,-127.865,5.417,-30.706806500351302,-110.69217743825293,2.842315788000006
126007248.0,0.7178,-0.1328,0.5688,0.834,-127.926,5.112,-30.345027506600875,-111.12567736665065,2.909052432000006
126020248.0,0.6392,-0.126,0.5933,-3.744,-126.522,0.962,-30.025771597578764,-111.44539119955279,2.921839076000006
126033248.0,0.6201,-0.1191,0.5908,-6.429,-119.198,-4.226,-29.73526184440557,-111.65167824993642,2.8671817200000063
126046248.0,0.6211,-0.1646,0.7412,-10.397,-118.221,-8.621,-29.523575846514426,-111.71076237786275,2.7553893640000062
126059248.0,0.6396,-0.1387,0.7476,-20.895,-114.437,-10.147,-29.409663879437737,-111.73616767667407,2.623759008000006
126072248.0,0.6792,-0.1362,0.6704,-23.58,-108.333,-5.935,-29.3517096749475,-111.7777853172692,2.5468846520000064
126085248.0,0.6431,-0.1626,0.6572,-11.678,-100.338,-1.235,-29.191535571577866,-111.69139517513973,2.5311102960000063
126098248.0,0.6274,-0.1646,0.6626,3.031,-94.783,0.596,-28.848254083611327,-111.5170228924521,2.539138940000006
126111248.0,0.5845,-0.1318,0.6763,12.369,-84.346,3.159,-28.334412989093508,-111.16770432751186,2.580486584000006
126124248.0,0.5625,-0.1304,0.6523,21.097,-69.088,2.854,-27.725195254177752,-110.6291835411177,2.617869228000006
126137248.0,0.5347,-0.1235,0.6816,28.544,-50.045,3.22,-27.0125912986814,-109.80776408689232,2.660009872000006
126150248.0,0.5508,-0.1592,0.7725,29.825,-39.73,-0.076,-26.325412481700493,-108.81662097419692,2.659302516000006
126163248.0,0.5503,-0.1411,0.7593,25.797,-23.983,-2.151,-25.680942271817255,-107.65555924246945,2.631620160000006
126176248.0,0.5864,-0.1074,0.6333,21.464,3.788,0.657,-25.086522950841285,-106.3023469965937,2.640441804000006
126189248.0,0.5977,-0.1138,0.5381,25.187,39.311,7.493,-24.50288386355755,-104.6233678533228,2.738131448000006
126202248.0,0.5957,-0.1831,0.5645,37.821,78.007,13.657,-23.890553197364408,-102.43955053146958,2.915953092000006
126215248.0,0.6084,-0.208,0.7104,42.887,97.66,14.817,-23.19290376886761,-99.93520909330722,3.108854736000006
126228248.0,0.6729,-0.1851,0.6665,32.816,119.267,17.258,-22.62153900726647,-97.30152938832796,3.333489380000006
126241248.0,0.7061,-0.1733,0.5869,28.727,147.282,21.653,-22.13229188719207,-94.46113368768859,3.615259024000006
126254248.0,0.7251,-0.1704,0.5239,32.328,175.419,26.963,-21.63828167641803,-91.39283097061475,3.966058668000006
126267248.0,0.7705,-0.1748,0.4478,46.488,207.646,33.799,-21.03987450244672,-88.08066473066252,4.405726312000006
126280248.0,0.8228,-0.1968,0.3779,69.376,248.783,42.527,-20.28556116795647,-84.40231661726924,4.958857956000006
126293248.0,0.9023,-0.2432,0.4976,83.292,268.681,44.785,-19.339796600030077,-80.46071706728625,5.5413436000000065
126306248.0,0.9399,-0.2441,0.5625,80.668,278.813,46.189,-18.394613367496916,-76.43731820949726,6.142081244000006
126319248.0,0.9614,-0.2852,0.6899,71.512,282.231,46.86,-17.565004642401675,-72.35665637740665,6.751541888000006
126332248.0,0.9248,-0.2236,0.644,48.38,273.503,46.494,-16.980437462031116,-68.49747524796136,7.356244532000006
126345248.0,0.9233,-0.1758,0.3091,39.286,287.114,49.485,-16.733053417250037,-64.84871715205972,7.999830176000006
126358248.0,1.0132,-0.1846,0.1606,55.277,322.087,55.222,-16.673854061976705,-60.97711416329804,8.717996820000005
126371248.0,0.959,-0.1919,0.1558,64.127,347.172,55.222,-16.542098091624975,-56.84582565682535,9.436163464000005
126384248.0,0.981,-0.2471,0.1714,64.554,330.815,50.156,-16.494047820335354,-52.95376014225973,10.088472108000005
126397248.0,1.0093,-0.2954,0.1367,62.54,300.846,43.137,-16.67089780740586,-49.504712803853586,10.649533752000005
126410248.0,1.0649,-0.2236,0.1553,43.864,274.723,37.095,-16.883168041873255,-46.52813155856601,11.132049396000005
126423248.0,1.0542,-0.188,-0.0229,32.816,259.831,37.339,-18.066475858782702,-43.883921771109115,11.617737040000005
126436248.0,1.0576,-0.1084,-0.2593,31.901,271.427,39.231,-20.445130657736645,-41.05092033055757,12.128020684000004
126449248.0,1.0073,-0.1255,-0.3384,44.413,297.734,44.236,-22.66359647494803,-37.84280552243036,12.703369328000004
126462248.0,1.0205,-0.1694,-0.2817,66.141,304.142,46.616,-24.347426150868134,-34.6543901690647,13.309657972000004
126475248.0,0.9795,-0.1841,-0.2524,70.719,302.433,42.344,-25.837528008243552,-31.554801783882183,13.860410616000003
126488248.0,1.0479,-0.1934,-0.2939,55.46,288.273,36.362,-27.54743017900397,-28.680219004213626,14.333397260000003
126501248.0,1.0767,-0.1514,-0.3862,36.6,282.292,34.775,-29.702218303435547,-25.88910823181662,14.785752904000004
126514248.0,0.9404,-0.1323,-0.4746,21.708,266.85,32.639,-32.12023502279516,-23.218930963581467,15.210340548000005
126527248.0,0.9219,-0.1299,-0.6338,23.356,257.511,29.587,-34.548771682973786,-20.572944209168117,15.595252192000006
126540248.0,0.9199,-0.1016,-0.6387,30.253,290.593,29.892,-36.891752264988924,-17.557445610633046,15.984128836000005
126553248.0,0.8467,-0.1089,-0.6411,35.319,278.508,29.465,-39.1112924015396,-14.70789785369509,16.367454480000006
126566248.0,0.9263,-0.125,-0.7466,47.709,274.235,32.456,-41.13131032158858,-11.935151138996924,16.789663124000008
126579248.0,0.9004,-0.0923,-0.6543,53.812,262.883,39.292,-43.0626772597043,-9.422134224730312,17.300739768000007
126592248.0,0.7456,-0.0542,-0.5337,42.032,240.605,43.076,-45.15010899051473,-7.253991248601004,17.861008412000007
126605248.0,0.6201,-0.0366,-0.6245,31.962,221.501,41.672,-47.372978127186485,-5.18224873319583,18.403025056000008
126618248.0,0.5171,0.0054,-0.646,25.065,203.74,38.437,-42.51591810955536,-3.2567506337206815,18.902986700000007
126631248.0,0.4487,0.0068,-0.6865,15.482,190.007,31.968,-37.879858360177366,-1.4345709505667985,19.318851344000006
126644248.0,0.4346,-0.0156,-0.8179,9.012,179.753,24.094,-40.585743650918225,0.3242781032131108,19.632353988000006
126657248.0,0.4639,-0.0103,-0.9155,8.646,173.283,19.516,-43.251135956167666,1.9877110313908122,19.886342632000005
126670248.0,0.5117,-0.0098,-0.8535,15.787,161.32,18.174,-45.77197888774441,3.384033329466676,20.122885276000005
126683248.0,0.4053,0.0312,-0.7368,10.538,130.558,19.822,-41.17092933791028,4.403514009212967,20.380851920000005
126696248.0,0.3052,0.0513,-0.7368,0.101,99.369,21.164,-36.826029307188875,5.132080285774731,20.656264564000004
126709248.0,0.2744,0.0479,-0.8159,-14.364,77.58,19.15,-32.73985256988437,5.646337650229368,20.905495208000005
126722248.0,0.2378,0.0088,-1.0347,-17.416,76.664,12.864,-28.71683000587477,6.25096097667459,21.073007852000003
126735248.0,0.2559,0.0122,-1.2637,-0.631,83.744,7.065,-24.561743896037285,6.963604698060826,21.165133496000003
126748248.0,0.2432,0.0151,-1.1831,14.689,85.392,1.633,-20.29814478349484,7.6796315478913275,21.186643140000005
126761248.0,0.2314,0.0361,-0.8574,8.158,67.326,-3.067,-16.236617165444095,8.081664498608273,21.147052784000003
126774248.0,0.2827,0.1055,-0.7246,-2.157,40.47,-0.808,-12.505192362038843,8.013118413443742,21.136829428000002
126787248.0,0.3008,0.083,-0.7949,-21.505,16.178,7.798,-9.048430726667561,7.646177462656255,21.238484072000002
126800248.0,0.2622,0.1084,-0.9258,-38.778,1.591,8.713,-5.895207560076088,7.199011537756873,21.352033716
126813248.0,0.2178,0.0625,-1.082,-39.755,6.657,9.202,-2.750049625870201,6.912293028285842,21.47194036
126826248.0,0.1987,0.0513,-1.1724,-34.933,13.554,6.455,0.4096467656931173,6.7542288917923115,21.556136004000003
126839248.0,0.1665,0.0366,-1.1689,-22.848,17.277,1.633,3.6743526983510373,6.676902852747642,21.577645648000004
126852248.0,0.1924,0.0591,-1.0923,-11.984,15.934,-2.029,6.986099947134846,6.5465619594414015,21.551549292000004
126865248.0,0.2075,0.04,-1.0449,-9.115,-5.55,-3.311,10.28625825509112,6.120152961217368,21.508786936000003
126878248.0,0.2603,0.0088,-1.1255,1.444,-14.949,-4.837,13.689821201178596,5.546571375886618,21.446186580000003
126891248.0,0.2622,0.0371,-1.0718,5.9,-26.363,-0.686,17.051392114332614,4.8247086091154845,21.437549224
126904248.0,0.2485,0.0347,-1.0801,5.778,-26.485,2.244,20.347025208072427,4.1314983517530655,21.467001868
126917248.0,0.2187,0.0293,-1.1426,3.824,-17.574,0.901,23.559274872729933,3.608038248087585,21.478995512
126930248.0,0.207,0.0195,-1.1489,9.379,-4.451,-2.883,26.787981349192542,3.2746363559722043,21.441797156
126943248.0,0.2168,0.0151,-1.0991,11.881,5.436,-7.705,29.98769446893685,3.0549558491141644,21.3419128
126956248.0,0.2896,0.0225,-1.061,13.59,15.263,-8.804,33.13663105957246,2.882739388914337,21.227741444
126969248.0,0.3384,0.019,-1.0415,13.59,25.578,-4.47,36.22598350480909,2.7907147651298816,21.169912088
126982248.0,0.3599,0.02,-1.0283,11.332,36.442,2.06,39.223399743918684,2.813149724093664,21.196972732
126995248.0,0.2969,0.0132,-0.9619,12.369,36.381,8.53,42.18063957245219,2.8770504102844807,21.308143376
127008248.0,0.2197,0.021,-0.9839,11.82,30.827,9.324,45.06301028568605,2.960260045189277,21.42963602
127021248.0,0.1748,0.0186,-1.0376,14.811,33.207,6.76,47.92975374936643,3.1325970814305943,21.517796664
127034248.0,0.1548,0.0249,-1.0215,17.069,34.977,1.328,50.76054151357959,3.342966231745219,21.535341308
127047248.0,0.1797,0.043,-0.9771,20.67,31.987,-2.395,53.558120794601535,3.4751068183878515,21.504486952
127060248.0,0.2095,0.0542,-0.9531,18.9,24.601,-2.639,56.26250062365392,3.4711759444324777,21.470460596000002
127073248.0,0.2515,0.0635,-0.9604,12.369,20.817,-0.076,58.8190268098244,3.3737888421600264,21.469753240000003
127086248.0,0.2329,0.0693,-0.9561,6.937,13.615,4.563,61.24796143665395,3.2063589514510684,21.529352884
127099248.0,0.2104,0.0718,-0.9482,2.115,3.666,5.845,63.563192075336694,2.939117238506177,21.605618528
127112248.0,0.1606,0.0645,-1.0078,-0.814,-5.611,5.967,65.80816924935299,2.6278339077970707,21.683470172
127125248.0,0.1631,0.0674,-1.0757,0.529,-2.132,2.121,68.02689056600897,2.3757216706790714,21.711323816
127138248.0,0.1714,0.0757,-1.0654,0.59,3.666,-0.747,70.19243606878935,2.1922835743658124,21.70189346
127151248.0,0.1689,0.0723,-1.0615,1.871,6.108,-2.212,72.334345595631,2.04555549836605,21.673418104
127164248.0,0.1899,0.085,-1.0444,2.299,8.915,-3.86,74.423742044276,1.9124862188428606,21.623518748
127177248.0,0.2109,0.0952,-1.0146,0.712,7.939,-3.433,76.43698160981936,1.7412330689842537,21.579170391999998
127190248.0,0.1948,0.0874,-1.0308,-0.265,4.582,-1.846,78.40778822346915,1.5512069025892148,21.555453036
127203248.0,0.1875,0.0811,-1.061,2.543,8.305,-1.419,80.38446054373547,1.4258294167166663,21.53728668
127216248.0,0.1973,0.0903,-1.0288,1.932,11.296,-0.991,82.30091361645414,1.3246184930787885,21.524684324000003
127229248.0,0.1797,0.0854,-1.0454,0.895,13.31,0.168,84.17274480298765,1.2729655885194011,21.527148968000002
127242248.0,0.1646,0.0771,-1.062,-0.265,17.033,-0.076,86.0027183198356,1.28846444093523,21.526441612000003
127255248.0,-0.103,0.0361,-1.1621,16.703,12.211,-21.194,88.05972537004563,1.5192220978236672,21.251200256000004
127268248.0,0.1118,0.1133,-1.0527,17.008,-1.461,-13.443,89.99220410451765,1.3493768437508964,21.076721900000003
127281248.0,0.1152,0.0674,-1.0244,15.238,-3.658,-16.922,91.91105657598368,1.1474414908672026,20.857016544000004
127294248.0,0.1548,0.0957,-1.0034,7.426,-0.911,-16.494,93.65833074717172,0.9379694448517514,20.642875188000005
127307248.0,0.1938,0.0732,-1.043,3.824,4.582,-13.076,95.35344169908251,0.7672744752206768,20.473167832000005
127320248.0,0.1768,0.0571,-1.0771,3.397,1.652,-10.33,97.0288103484989,0.5865056990732181,20.339158476000005
127333248.0,0.188,0.0435,-1.1099,7.365,-2.315,-6.729,98.73702666012181,0.3528583312385467,20.251962120000005
127346248.0,0.1689,0.0454,-1.0859,7.365,-3.292,-5.02,100.4080859350254,0.12690158119248793,20.186982764000007
127359248.0,0.1738,0.0303,-1.0728,6.998,4.216,-5.081,102.05657326559168,-0.006192052976317808,20.121210408000007
127372248.0,0.1978,0.0327,-1.019,1.749,10.563,-5.752,103.60081491073035,-0.09138231155979931,20.046715052000007
127385248.0,0.2153,0.0308,-1.021,-4.537,9.831,-4.104,105.03629043908632,-0.20264806714823375,19.993643696000007
127398248.0,0.2192,0.0171,-1.02,-7.406,7.389,-1.785,106.42185404490344,-0.3472898219078942,19.970719340000006
127411248.0,0.2354,0.0122,-1.0273,-8.383,5.741,1.084,107.77286052272568,-0.5256034083786169,19.985091984000007
127424248.0,0.2329,0.0073,-1.0576,-7.833,4.582,2.854,109.10955241949358,-0.7053883492194939,20.02247462800001
127437248.0,0.2114,-0.002,-1.0942,-6.246,6.23,3.281,103.24973284849091,-0.8309004396718006,20.06540827200001
127450248.0,0.168,-0.021,-1.085,-3.5,13.249,1.023,97.5621754270363,-0.8217853182255661,20.07898791600001
127463248.0,0.1914,0.0107,-1.0576,-1.73,20.512,-0.93,99.1771495963918,-0.7494722589287339,20.06717856000001
127476248.0,0.1782,0.0264,-0.9751,-3.378,18.071,-1.846,100.71940476828289,-0.7116083853258528,20.04346120400001
127489248.0,0.1865,0.0317,-0.9736,-5.941,10.441,-1.907,102.19188198012064,-0.7814201508973311,20.01895084800001
127502248.0,0.1914,0.041,-0.979,-6.796,3.849,-0.625,103.6133519843169,-0.9381022244441206,20.01110649200001
127515248.0,0.1738,0.0352,-1.0469,-6.552,5.009,1.45,105.01894875810532,-1.0442330053675675,20.03023713600001
127528248.0,0.1538,0.0454,-1.0234,-4.049,8.854,1.206,106.41603479589769,-1.0816092119149874,20.046195780000012
127541248.0,0.1265,0.0444,-1.0156,-4.965,10.99,0.351,107.77424573579262,-1.0621241004000628,20.051039424000013
127554248.0,0.1304,0.061,-1.0459,-6.063,16.362,-1.174,109.07461161220239,-0.9746207248185964,20.036058068000013
127567248.0,0.146,0.0522,-1.0327,-5.331,21.916,-2.578,110.36717996764017,-0.8369488499437779,20.002824712000013
127580248.0,0.1519,0.0635,-0.9702,-9.237,21.855,-1.785,111.56711414207419,-0.7196629612399049,19.979900356000012
127593248.0,0.1548,0.0557,-0.9976,-12.35,20.451,0.901,112.71436916081252,-0.6211549561399272,19.991894000000013
127606248.0,0.1299,0.0552,-0.9712,-15.89,14.164,2.06,113.7924338749389,-0.5806975793855866,20.01895464400001
127619248.0,0.0991,0.0278,-1.1523,-1.364,4.704,0.412,115.07141822039412,-0.6077286672412627,20.02459128800001
127632248.0,0.0894,0.042,-1.103,5.533,-10.86,-1.052,116.39671820093642,-0.8268328939219627,20.01119593200001
127645248.0,0.1309,0.0439,-1.1504,13.468,-5.733,-3.067,117.79650948579147,-1.0133657910905627,19.97160557600001
127658248.0,0.1274,0.0586,-1.0781,11.698,4.582,-4.959,119.12723793248144,-1.0696091064177715,19.90741922000001
127671248.0,0.1299,0.0625,-1.0264,9.867,6.779,-6.179,120.40055820210257,-1.1061407998846442,19.827372864000008
127684248.0,0.1479,0.0742,-0.98,-1.425,4.704,-5.508,121.48764657517422,-1.1955442194157275,19.756049508000007
127697248.0,0.1621,0.0762,-1.0161,-9.115,3.544,-2.517,122.45584488093786,-1.3075590660879834,19.72360915200001
127710248.0,0.1289,0.0498,-1.0791,-9.481,0.981,-0.442,123.4329450211401,-1.4052955832501106,19.71814379600001
127723248.0,0.064,0.0234,-1.0981,-4.354,5.802,-3.433,124.4842519208744,-1.3702618556688462,19.67379544000001
127736248.0,0.0972,0.0493,-1.0791,-1.547,12.516,-6.607,125.52239292206474,-1.2865301337604778,19.58818508400001
127749248.0,0.0845,0.0571,-1.0044,-0.204,10.075,-9.964,126.54412200023023,-1.228762334579373,19.45893372800001
127762248.0,0.106,0.0503,-1.0098,-2.096,-0.667,-9.292,127.52935448397058,-1.3326800720812244,19.33841837200001
127775248.0,0.0947,0.0459,-1.0137,1.2,-7.503,-10.33,128.54205512578326,-1.508541288126272,19.20440901600001
127788248.0,0.0767,0.0454,-1.0903,1.078,-3.048,-12.832,129.53711045696852,-1.5979057974261621,19.03787366000001
127801248.0,0.0742,0.0435,-1.0791,2.726,15.751,-16.799,130.53478004994312,-1.444180203490627,18.81976730400001
127814248.0,0.0684,0.0513,-1.0186,-1.18,25.883,-21.255,131.4512389363618,-1.1625776582924099,18.54373294800001
127827248.0,0.105,0.0454,-1.0244,-1.73,33.512,-24.429,132.349272757414,-0.8296091422876786,18.22643659200001
127840248.0,0.165,0.0605,-1.022,-5.331,39.006,-21.743,133.16646491714474,-0.4994820296832908,17.94405823600001
127853248.0,0.1719,0.0415,-1.0039,-10.153,40.47,-15.64,133.92629359693535,-0.16836829621746355,17.74101888000001
127866248.0,0.1494,0.0479,-1.0576,-10.885,40.593,-8.071,134.65707934038863,0.19121129676180512,17.63637652400001
127879248.0,0.0811,0.0322,-1.0684,-6.307,35.893,-4.898,135.4489118120637,0.5575921620803752,17.57298316800001
127892248.0,0.0762,0.0059,-1.1563,2.115,34.855,-4.837,136.36088270578895,0.9147939332858555,17.51038281200001
127905248.0,0.1714,-0.0083,-1.1001,12.98,39.067,0.535,130.20752674862086,1.2168088970033348,17.51761845600001
127918248.0,0.1475,-0.0435,-1.0142,14.811,40.043,3.647,124.24103864746981,1.536981298013706,17.565310100000012
127931248.0,0.0991,-0.0337,-1.0151,12.919,39.372,-2.212,118.3586858678278,1.8960909468366405,17.53683474400001
127944248.0,0.1064,-0.0171,-1.0254,7.242,36.137,-3.25,112.50273422070669,2.1997962254390218,17.49486538800001
127957248.0,0.0527,0.0073,-0.9766,-0.997,25.09,-5.447,113.8312632894794,2.413378382296442,17.424335032000013
127970248.0,0.0088,0.0361,-0.9521,-7.406,11.235,-5.081,115.01670863205614,2.497367808478345,17.358562676000012
127983248.0,-0.0244,0.0425,-0.9756,-11.129,4.948,-5.813,116.12455408723949,2.5387910682125248,17.28327432000001
127996248.0,-0.0205,0.0527,-1.0093,-11.923,5.009,-6.546,117.19023596317261,2.5747764433770386,17.198456964000012
128009248.0,-0.0137,0.0464,-1.0586,-10.641,8.183,-5.081,118.26052085413504,2.642053861436349,17.132684608000012
128022248.0,0.0254,0.0264,-1.1089,-3.622,18.193,-4.165,119.42174105841606,2.7944623333625915,17.078820252000014
128035248.0,0.0435,0.0161,-1.1016,-0.509,28.263,-2.273,120.60992608547865,3.0531286661221784,17.049551896000015
128048248.0,0.0767,0.0039,-1.106,-1.974,34.123,-0.991,121.7683890622996,3.3471590988906907,17.036949540000016
128061248.0,0.0156,0.0254,-1.0083,-6.613,24.113,0.351,122.81976209508777,3.569400013494402,17.041793184000017
128074248.0,-0.0361,0.0327,-1.0361,-6.674,12.516,1.206,123.84203723441966,3.697062651338775,17.05775182800002
128087248.0,-0.0669,0.0386,-1.0752,-5.514,5.802,2.06,124.85367807192046,3.767907920226219,17.084812472000017
128100248.0,-0.0767,0.0405,-1.0952,-5.087,1.652,1.938,125.8492909840023,3.793369208211414,17.110287116000016
128113248.0,-0.0718,0.0332,-1.1226,-1.791,-1.094,2.61,126.87545915241564,3.7764304772325508,17.144497760000018
128126248.0,-0.0469,0.0254,-1.1724,1.078,-1.705,3.647,127.92671234916305,3.7246921071214754,17.19218940400002
128139248.0,-0.0396,0.0171,-1.1914,3.702,3.361,3.342,128.99874653586224,3.7307942217865744,17.235916048000018
128152248.0,-0.0635,0.0293,-1.1436,3.275,3.3,3.403,130.0309931922861,3.761469404590223,17.28043569200002
128165248.0,-0.0801,0.0293,-1.127,3.092,-0.85,2.61,131.0398313390637,3.7563978928752153,17.31464633600002
128178248.0,-0.0664,0.0298,-1.1279,4.923,-4.512,2.915,132.05133578110596,3.69085298965516,17.35282198000002
128191248.0,-0.0537,0.0342,-1.1118,5.778,-5.55,2.121,133.04853346298967,3.601314200429987,17.38067562400002
128204248.0,-0.0596,0.0322,-1.0933,5.167,-7.076,1.694,134.0195014795228,3.501225761817253,17.40297826800002
128217248.0,-0.0527,0.0405,-1.0781,3.153,-8.602,1.328,134.9361043290321,3.377249380128751,17.42052291200002
128230248.0,-0.0288,0.0347,-1.1196,0.529,-4.757,0.046,135.80846845604776,3.278263076274293,17.42140155600002
128243248.0,-0.0161,0.0425,-1.1016,0.773,0.859,-0.015,136.65781030833585,3.2400820844331566,17.42148720000002
128256248.0,-0.0229,0.042,-1.0625,1.017,0.553,0.535,137.49218787732187,3.206706998559768,17.42872284400002
128269248.0,-0.0244,0.0415,-1.063,3.458,-1.156,0.535,138.34153567865485,3.1538305975978758,17.435958488000022
128282248.0,-0.0269,0.0547,-1.0547,4.252,-2.559,1.328,139.16934891512216,3.087039804361477,17.453503132000023
128295248.0,-0.0142,0.0459,-1.0571,3.641,-4.268,2.06,139.98247407072037,2.986008905016454,17.48056377600002
128308248.0,-0.0093,0.0459,-1.0757,2.848,-3.475,1.816,140.77009265377603,2.891621597614047,17.50445242000002
128321248.0,-0.0151,0.0474,-1.0684,2.909,-2.071,1.877,141.54079675896716,2.8232897574675406,17.529134064000022
128334248.0,-0.0073,0.04,-1.0581,1.932,-1.156,0.962,142.2911463689934,2.759703180052146,17.54192070800002
128347248.0,0.0024,0.0415,-1.0669,1.81,-0.545,0.779,143.02368276663805,2.694696594812186,17.55232835200002
128360248.0,-0.0029,0.0503,-1.0464,0.773,-1.461,1.267,143.71786682070476,2.625068222523508,17.56907999600002
128373248.0,-0.0142,0.0508,-1.0591,1.139,-0.667,1.145,144.40294929872567,2.5791212793623477,17.58424564000002
128386248.0,-0.019,0.0444,-1.0571,0.651,2.323,0.412,145.07493291274042,2.5774164359419793,17.58988228400002
128399248.0,-0.0107,0.0479,-1.0425,1.322,3.422,0.107,145.73751287124455,2.5809195882147526,17.59155392800002
128412248.0,-0.0137,0.0469,-1.0522,-0.875,0.92,0.657,146.36042268207297,2.555633137404251,17.600375572000022
128425248.0,-0.0073,0.0425,-1.0698,-1.302,0.492,0.657,146.97097781990792,2.518308233125515,17.609197216000023
128438248.0,-0.0151,0.0449,-1.0669,-2.218,2.14,-0.137,147.55495504194005,2.5111151375383582,17.607696860000022
128451248.0,-0.0088,0.0449,-1.062,-1.669,4.338,-1.174,148.13402486612816,2.525352181073958,17.592715504000022
128464248.0,-0.0181,0.0518,-1.0527,-1.18,3.849,-0.686,148.69982076470595,2.543264963489291,17.58407814800002
128477248.0,-0.0176,0.0435,-1.0713,-1.18,4.216,-1.052,149.26413793263566,2.564626719389213,17.57068279200002
128490248.0,0.001,0.0581,-1.1138,1.444,7.328,-0.381,149.83738158586672,2.6053720402532092,17.56601043600002
128503248.0,-0.0098,0.0474,-1.0708,3.214,6.474,-0.686,150.43073933531014,2.645926840519712,17.55737308000002
128516248.0,-0.0068,0.0449,-1.0547,2.909,4.155,-0.991,151.01028246921948,2.653030885331619,17.54477072400002
128529248.0,-0.0244,0.0527,-1.0322,1.566,2.323,-0.625,151.55142354664318,2.6563197025945717,17.53692636800002
128542248.0,-0.0371,0.0469,-1.0293,0.284,-4.635,0.474,152.07168673518933,2.5850926363799944,17.54336901200002
128555248.0,-0.0171,0.0352,-1.0884,2.604,-3.048,-0.198,152.6262317516298,2.512258584398985,17.54107565600002
128568248.0,-0.0063,0.0366,-1.0889,3.947,0.981,-0.991,153.18534098206823,2.480843981819077,17.528473300000023
128581248.0,0.0,0.0464,-1.0542,2.054,-0.057,-1.052,153.697248839096,2.4302074945026955,17.515077944000023
128594248.0,-0.0093,0.0425,-1.0586,2.299,-3.658,-1.235,154.20646331795734,2.344765719129796,17.49930358800002
128607248.0,-0.0151,0.0435,-1.0474,2.177,-7.015,-1.541,154.70235586765128,2.224710771348232,17.47955123200002
128620248.0,-0.0205,0.0483,-1.082,2.054,-7.015,-1.785,155.18320847656295,2.1122388094255493,17.45662687600002
128633248.0,-0.0059,0.0405,-1.0962,3.641,-1.339,-1.846,155.6834641044778,2.058805061794243,17.43290952000002
128646248.0,0.0005,0.0469,-1.0811,3.947,2.446,-2.09,156.17024993251397,2.047968094228881,17.40602016400002
128659248.0,0.0107,0.042,-1.0659,3.824,5.131,-1.968,156.65028415352668,2.060590316125353,17.38071680800002
128672248.0,-0.0063,0.0596,-1.0347,2.543,2.751,-1.48,157.0835939835164,2.0610983510266747,17.36175745200002
128685248.0,-0.0176,0.0542,-1.0454,0.956,-1.705,-0.564,157.4945943344988,2.0171258107522596,17.35470609600002
128698248.0,-0.0132,0.0518,-1.0571,1.383,-1.766,0.351,157.90606559984076,1.9682821769949888,17.35954974000002
128711248.0,-0.0181,0.043,-1.0796,1.749,-0.789,0.84,158.32446033168955,1.9377660416317812,17.37075038400002
128724248.0,-0.0039,0.0337,-1.0698,3.947,2.69,-0.137,158.77202109757079,1.93716328599049,17.369250028000017
128737248.0,0.0034,0.0415,-1.0488,2.238,2.323,-1.358,159.17962466106098,1.9240097009970327,17.351876672000017
128750248.0,-0.0054,0.0459,-1.0405,1.017,1.225,-1.297,159.5583222518611,1.9067838351553548,17.33529631600002
128763248.0,-0.0122,0.0508,-1.0288,1.2,-1.4,-0.137,159.92575779527098,1.8640903728394904,17.333795960000018
128776248.0,0.0005,0.0474,-1.0381,1.261,-1.644,0.168,160.29087219237883,1.8050192229074598,17.336260604000017
128789248.0,0.0068,0.0405,-1.0557,1.383,-0.423,0.29,160.6585857525813,1.7558608193259082,17.340311248000017
128802248.0,-0.0005,0.042,-1.0522,0.529,0.065,-0.076,161.00628797469756,1.7218223750934087,17.339603892000017
128815248.0,-0.001,0.0439,-1.0459,0.162,0.798,-0.381,161.34000730780164,1.698353682073425,17.334931536000017
128828248.0,-0.0205,0.0469,-1.04,0.223,-1.278,0.107,161.6642577769561,1.6703733711375315,17.33660318000002
128841248.0,-0.0181,0.0469,-1.0488,0.895,-4.268,-0.381,161.99101723694636,1.6020524589476248,17.33193082400002
128854248.0,0.0059,0.04,-1.1182,-0.265,-2.01,-1.052,162.30669782035372,1.5380682660292075,17.318535468000018
128867248.0,-0.0063,0.0444,-1.106,2.177,5.253,-1.663,162.64217212741931,1.5804587365047593,17.297197112000017
128880248.0,-0.0044,0.0527,-1.0391,2.177,3.544,-2.212,162.9588470483778,1.598552740174151,17.268721756000016
128893248.0,-0.0264,0.0615,-1.0215,1.444,-2.376,0.046,163.24901032368513,1.5655733737015793,17.269600400000016
128906248.0,-0.0161,0.0542,-1.0479,1.932,-2.987,0.29,163.5492779478632,1.513495133844623,17.273651044000015
128919248.0,-0.0015,0.0659,-1.0757,-0.082,-1.156,0.168,163.8069847508615,1.469799283808352,17.276115688000015
128932248.0,-0.0103,0.0459,-1.083,-0.692,0.37,0.107,164.07334251118553,1.4557119339808955,17.277787332000017
128945248.0,-0.0015,0.0498,-1.0645,0.773,-2.01,-0.076,164.34800490510716,1.4023098261614895,17.277079976000017
128958248.0,-0.0063,0.0474,-1.0703,0.529,-2.926,0.962,164.6169196378724,1.3434313679045569,17.289866620000016
128971248.0,-0.0122,0.0508,-1.0698,1.139,-2.681,0.351,164.88456955430024,1.2951661220645518,17.294710264000017
128984248.0,-0.0083,0.0459,-1.0742,-0.265,-2.193,0.474,165.1344184540305,1.2498764277567005,17.301152908000017
128997248.0,0.0,0.0444,-1.0742,0.406,0.798,0.229,165.38941623642668,1.2347519915215666,17.304410552000018
129010248.0,-0.0039,0.0425,-1.0581,-0.021,1.286,-0.93,165.63520886267116,1.2303674172159262,17.292601196000017
129023248.0,-0.0073,0.0488,-1.0459,-0.021,-1.094,-0.93,165.86866032131022,1.1995183323023115,17.280791840000017
129036248.0,-0.0117,0.0488,-1.0459,-0.753,-6.405,-0.625,166.0881170707765,1.106439202657431,17.272947484000017
129049248.0,-0.0049,0.0479,-1.0605,1.383,-2.498,-1.297,166.33210229842004,1.0574817003089674,17.25636712800002
129062248.0,-0.0005,0.0483,-1.0605,1.81,-1.094,-1.297,166.57621647173016,1.0226407904857542,17.23978677200002
129075248.0,0.0034,0.0474,-1.0679,3.58,-0.85,-1.602,166.83932288408002,0.9874207603936069,17.21924141600002
129088248.0,0.0054,0.0513,-1.0454,4.313,-0.484,-2.273,167.10114759793572,0.9553007120998954,17.18997306000002
129101248.0,0.0005,0.0586,-1.0366,3.885,-1.339,-1.419,167.34375969753378,0.9182905633474822,17.171806704000023
129114248.0,-0.0171,0.0659,-1.0317,4.13,-4.39,0.351,167.5762554615456,0.8626554440646489,17.176650348000024
129127248.0,0.0024,0.0547,-1.0518,4.679,-3.78,0.29,167.82465086204272,0.7943404876393846,17.180700992000023
129140248.0,0.0093,0.0508,-1.0571,4.862,-2.865,-0.32,168.07492492797456,0.7315906612907959,17.176821636000025
129153248.0,0.0029,0.0513,-1.0542,5.411,-4.207,-0.808,168.32649440707377,0.6599196735533083,17.166598280000024
129166248.0,0.0088,0.0562,-1.0771,4.862,-4.757,-1.235,168.5620209616433,0.5764743687001651,17.150823924000022
129179248.0,0.0049,0.0522,-1.0977,4.069,-2.559,-2.09,168.78801877303485,0.5269403728933011,17.12393456800002
129192248.0,-0.0122,0.0591,-1.0874,1.383,-0.362,-2.395,168.96750971331477,0.5243332853837338,17.09308021200002
129205248.0,-0.0083,0.0786,-1.0581,-1.791,-5.001,-1.113,169.08022592779307,0.45880441788919984,17.078891856000023
129218248.0,-0.0049,0.0659,-1.0811,2.726,-0.301,-0.137,169.26343703735023,0.4506842755991514,17.077391500000022
129231248.0,-0.0039,0.0684,-1.0293,3.275,-0.24,0.168,169.44370513771722,0.4426518410707629,17.079856144000022
129244248.0,-0.0005,0.0635,-1.0361,2.543,-3.414,0.779,169.6169372571571,0.3905629755619283,17.090263788000023
129257248.0,-0.0015,0.064,-1.0615,3.397,-1.705,1.511,169.79872123129195,0.3623529393600473,17.11018743200002
129270248.0,-0.0015,0.0679,-1.0713,2.115,-1.705,1.938,169.95701071368805,0.3346920131892403,17.13566207600002
129283248.0,0.0015,0.0625,-1.0908,1.627,-0.484,2.06,170.112863202882,0.31996537502167854,17.16272272000002
129296248.0,0.0029,0.0557,-1.0879,2.787,2.812,1.206,170.28734412474822,0.3460468715600216,17.17868136400002
129309248.0,0.0117,0.0557,-1.0752,3.702,5.925,-0.137,170.46930136136,0.40186468955326143,17.17718100800002
129322248.0,0.0181,0.0615,-1.0508,3.336,6.291,-0.259,170.63527657215445,0.4539786057461969,17.17409465200002
129335248.0,0.0054,0.0649,-1.0342,2.726,5.436,0.29,170.785334866908,0.5078887317747065,17.178145296000018
129348248.0,0.0039,0.0703,-1.0532,1.749,6.901,1.328,170.91538604746611,0.5811223842946073,17.19568994000002
129361248.0,-0.0063,0.0801,-1.0503,-0.57,8.549,2.305,171.002444339917,0.6849743147947063,17.22593558400002
129374248.0,-0.021,0.0669,-1.0562,-1.852,6.169,3.586,171.08616618971433,0.7723096891503306,17.27283422800002
129387248.0,-0.002,0.0601,-1.0625,-0.57,6.84,3.098,171.19228267836684,0.845865240232235,17.31338887200002
129400248.0,0.0132,0.0596,-1.0317,-1.73,3.971,2.427,171.2801232202599,0.8646089248120468,17.34522051600002
129413248.0,-0.0024,0.0508,-1.0449,-3.195,0.859,1.267,171.35800019568012,0.8605958887082181,17.36197216000002
129426248.0,-0.0171,0.0664,-1.042,-4.293,-2.926,0.229,171.4030750881579,0.8245788927060628,17.36522980400002
129439248.0,-0.0195,0.0552,-1.0806,-2.645,-3.353,0.84,171.48268161693912,0.7857261589948961,17.37643044800002
129452248.0,-0.0024,0.061,-1.103,-0.265,2.69,0.351,171.58619397678652,0.8064783792847765,17.38127409200002
129465248.0,-0.0059,0.0645,-1.0503,-1.425,2.262,0.474,171.665883003911,0.8252982078196668,17.38771673600002
129478248.0,-0.0063,0.0591,-1.0386,-1.547,-0.972,-0.015,171.7475711650453,0.8030551858759055,17.387802380000018
129491248.0,-0.0103,0.0649,-1.0322,-1.608,-6.099,0.351,171.8200296209633,0.7204112136418784,17.39264602400002
129504248.0,-0.0054,0.0552,-1.0562,-0.692,-8.663,0.596,171.91482958857716,0.6011935920197243,17.40067466800002
129517248.0,0.0029,0.0625,-1.0547,0.59,-10.86,0.412,172.01607460335703,0.4473746119018836,17.406311312000017
129530248.0,0.0083,0.0732,-1.0488,0.468,-16.17,0.901,172.10171781895835,0.22308153299718855,17.418304956000018
129543248.0,0.0015,0.0679,-1.062,2.665,-21.541,1.328,172.22032091814287,-0.0577210911161896,17.43584960000002
129556248.0,0.0122,0.0615,-1.084,9.806,-16.964,0.779,172.43575081354984,-0.2858570449971361,17.44625724400002
129569248.0,0.0122,0.0786,-1.0493,16.886,-10.189,0.168,172.71633724624317,-0.42352670401022,17.44872188800002
129582248.0,-0.0029,0.0874,-1.0352,21.586,-12.203,1.389,173.04034852148345,-0.5676170486291177,17.467059532000018
129595248.0,0.0078,0.0903,-1.0532,26.774,-14.644,2.671,173.42248368107627,-0.7515781713215969,17.502063176000018
129608248.0,0.0298,0.0947,-1.0835,28.788,-13.729,3.586,173.8207427461998,-0.943136593191854,17.548961820000017
129621248.0,0.0259,0.1006,-1.0869,27.384,-15.682,4.075,174.18729007218255,-1.1515409474642404,17.602217464000017
129634248.0,0.0347,0.0933,-1.1084,29.398,-14.583,4.197,174.58169474801792,-1.350327441167661,17.657059108000016
129647248.0,0.0459,0.1084,-1.0952,33.182,-8.602,4.624,174.99959904175518,-1.4809680900762743,17.717451752000017
129660248.0,0.0234,0.124,-1.0591,33.793,-7.076,6.638,175.39642449985237,-1.5669327197117806,17.804026396000015
129673248.0,0.0249,0.1289,-1.0439,34.037,-5.306,7.981,175.78119420507093,-1.6306082060729123,17.908060040000016
129686248.0,0.0195,0.1333,-1.0347,33.549,-3.78,9.141,176.14601640447157,-1.6678631349475073,18.027173684000015
129699248.0,0.0273,0.1367,-1.0332,32.572,-3.658,9.385,176.4871767409652,-1.7114120300754425,18.149459328000017
129712248.0,0.0264,0.1313,-1.0259,32.389,-4.757,8.957,176.82405283746183,-1.7673248824878105,18.266180972000015
129725248.0,0.0264,0.1294,-1.0488,33.732,-3.109,8.164,177.17649732911605,-1.8005020097291833,18.372593616000014
129738248.0,0.0337,0.1401,-1.0498,34.22,-0.484,6.76,177.5167524615853,-1.8074014374428573,18.460754260000012
129751248.0,0.0352,0.1455,-1.0361,33.365,1.286,5.417,177.83146253705263,-1.7937012006758664,18.531455904000012
129764248.0,0.0312,0.1587,-1.0078,31.901,-1.522,4.563,178.1021234677044,-1.812543981854101,18.59105554800001
129777248.0,0.0312,0.1641,-1.0381,30.253,-5.062,3.83,178.3456986200853,-1.87508440447833,18.641126192000012
129790248.0,0.0317,0.1797,-1.0459,28.91,-4.696,3.159,178.55196871712266,-1.9319228069733323,18.68247383600001
129803248.0,0.0317,0.1899,-1.0703,26.957,-0.24,3.037,178.72299034907084,-1.9300435592428549,18.72223548000001
129816248.0,0.0425,0.189,-1.0923,27.323,7.573,3.22,178.90014343014366,-1.8391678902306876,18.76437612400001
129829248.0,0.0347,0.2168,-1.0293,27.018,7.878,3.098,179.0283155005083,-1.740100477626828,18.80493076800001
129842248.0,0.0293,0.2139,-1.0278,23.966,3.849,3.403,179.11780167751098,-1.6885292616760519,18.84945041200001
129855248.0,0.0303,0.2168,-1.0469,21.403,2.568,3.525,179.17397355169942,-1.6548037851727615,18.89555605600001
129868248.0,0.0176,0.2095,-1.064,19.449,2.018,3.342,179.21534608031476,-1.6148880958636482,18.93928270000001
129881248.0,0.0195,0.2202,-1.0415,18.961,1.042,2.793,179.233693290854,-1.5905972789645433,18.97587234400001
129894248.0,0.0234,0.2266,-1.0381,17.435,-0.545,2.671,179.22472088664816,-1.5912540495950638,19.01087598800001
129907248.0,0.0361,0.2192,-1.042,15.848,0.431,1.816,179.20438518337198,-1.5930664171822857,19.03476463200001
129920248.0,0.0371,0.228,-1.0361,14.933,0.737,1.45,179.16218533685318,-1.5921662185537186,19.05389527600001
129933248.0,0.04,0.2373,-1.0396,13.224,1.591,1.206,179.09010457961617,-1.5833118652658282,19.06985392000001
129946248.0,0.0361,0.2363,-1.0479,12.247,2.69,1.084,179.01002880899878,-1.5561636299352217,19.084226564000012
129959248.0,0.0308,0.2402,-1.0366,12.125,1.774,1.572,178.9232261902856,-1.5358929618709838,19.104943208000012
129972248.0,0.0293,0.2417,-1.0244,12.675,-0.667,1.572,178.84057731513911,-1.5458575869479154,19.125659852000013
129985248.0,0.0293,0.2427,-1.0254,13.346,-3.414,1.45,178.7673212622702,-1.5905833038002362,19.144790496000013
129998248.0,0.0205,0.249,-1.0283,15.36,-3.597,1.877,178.71527216122,-1.6270911601593925,19.169472140000014
130011248.0,0.0249,0.2617,-1.0273,15.177,-3.231,2.182,178.6483355550702,-1.6629161816899465,19.198118784000012
130024248.0,0.0293,0.2627,-1.0562,12.797,-1.766,3.037,178.55890767597154,-1.683291594409247,19.23788042800001
130037248.0,0.0386,0.2617,-1.0513,8.89,0.92,2.366,178.42126865255736,-1.6790091118488455,19.26891907200001
130050248.0,0.0273,0.2563,-1.0425,4.862,-0.911,1.999,178.23839002127875,-1.6864626225788792,19.29518671600001
130063248.0,0.0273,0.2563,-1.0127,5.472,-2.803,0.901,178.0591359750239,-1.7186771774147085,19.30718036000001
130076248.0,0.0225,0.2651,-1.0015,5.717,-4.146,0.168,177.87411237400795,-1.7623005350635308,19.30964500400001
130089248.0,0.0229,0.2651,-0.9897,5.228,-5.55,0.107,177.6831823277437,-1.8236623714628821,19.311316648000012
130102248.0,0.0254,0.2646,-1.0195,4.862,-5.489,0.474,177.50032211420302,-1.8850410441073022,19.317759292000012
130115248.0,0.0347,0.2578,-1.0552,6.876,2.385,0.168,177.36318272924467,-1.8538427931918966,19.320223936000012
130128248.0,0.0366,0.2612,-1.0151,7.853,7.206,-0.808,177.2272172893194,-1.7652518806800008,19.31000058000001
130141248.0,0.0254,0.2642,-0.9941,7.059,2.873,-1.113,177.0747888622002,-1.7219292169420533,19.295812224000013
130154248.0,0.0391,0.2705,-1.001,5.228,-5.001,-1.113,176.89731190255227,-1.7946869636154805,19.281623868000015
130167248.0,0.0303,0.2769,-1.0283,2.421,-8.785,-0.625,176.68863848180325,-1.903603026755668,19.273779512000015
130180248.0,0.0449,0.272,-1.0488,0.712,-3.536,-0.625,176.4730074824638,-1.9583325054630236,19.265935156000015
130193248.0,0.0562,0.2773,-1.041,-1.73,4.216,-0.442,176.22303811504872,-1.925472777646535,19.260469800000017
130206248.0,0.0552,0.2725,-1.0186,-4.354,8.915,0.474,175.9434129738435,-1.833614808895927,19.266912444000017
130219248.0,0.0464,0.2695,-1.0195,-7.528,11.113,1.206,175.63234559777797,-1.7060453646212823,19.282871088000018
130232248.0,0.0498,0.2773,-1.0371,-10.092,13.92,1.511,175.2915860312824,-1.547996783601359,19.302794732000017
130245248.0,0.0439,0.2773,-1.0273,-14.791,16.484,2.182,174.8950502791227,-1.3545740886024011,19.331441376000015
130258248.0,0.0381,0.272,-1.0552,-23.763,19.169,2.549,174.40516908901307,-1.1236124217827952,19.364859020000015
130271248.0,0.0376,0.2627,-1.063,-34.384,20.085,1.999,173.80123625226207,-0.8848843140681002,19.391126664000016
130284248.0,0.0273,0.2417,-1.0776,-46.896,20.024,0.596,173.074769164741,-0.6406954459238937,19.399155308000015
130297248.0,0.0156,0.2251,-1.0825,-61.605,18.315,-2.151,172.19333828463982,-0.41100881834079944,19.371472952000016
130310248.0,-0.0112,0.1978,-1.0801,-74.972,15.019,-6.179,171.18662618862598,-0.2000523218265052,19.291426596000015
130323248.0,0.0122,0.2026,-1.0879,-87.423,13.371,-8.438,170.03798835224572,-0.038631046664078,19.182013240000014
130336248.0,0.0059,0.1968,-1.0879,-96.761,8.305,-9.841,168.79926729505345,0.061538524830781385,19.054360884000015
130349248.0,0.001,0.1831,-1.0493,-105.856,-0.728,-9.353,167.47656159195014,0.049663786904018556,18.933052528000015
130362248.0,-0.0229,0.1582,-1.0039,-115.682,-3.597,-8.682,166.07398598994874,0.02836781663439539,18.820467172000015
130375248.0,-0.0347,0.1279,-1.0469,-121.359,-7.442,-10.635,164.66693718531337,-0.029616039840467463,18.682492816000014
130388248.0,-0.0181,0.106,-1.042,-128.5,-7.381,-10.574,163.22018799928065,-0.10355019896743989,18.545311460000015
130401248.0,-0.0371,0.0122,-1.0532,-131.613,-1.156,-6.607,161.86561221218813,-0.07615345380995572,18.459701104000015
130414248.0,-0.0215,0.0547,-1.0195,-129.965,-1.033,-6.24,160.51097308573836,-0.0639565580025016,18.378861748000016
130427248.0,-0.0176,0.0103,-1.0005,-124.471,-9.151,-5.63,159.30304746165896,-0.15939970586926194,18.305952392000016
130440248.0,-0.0083,0.0,-0.9814,-116.415,-21.541,-3.616,158.23371040538578,-0.42124635181296655,18.259225036000014
130453248.0,-0.0044,-0.021,-1.0532,-107.992,-30.33,-0.93,150.1159147606941,-0.7947326896645338,18.247415680000014
130466248.0,0.0068,-0.0679,-1.2266,-100.973,-18.306,0.718,142.2904203758341,-1.0186928311546428,18.257030324000013
130479248.0,0.0259,-0.1226,-1.1831,-90.475,5.192,-2.029,134.81013585646647,-0.9574147358915589,18.230933968000013
130492248.0,0.0269,-0.1396,-1.0503,-78.207,18.315,-5.325,127.66884812302574,-0.7343135439903863,18.161989612000013
130505248.0,0.0317,-0.1372,-0.9546,-69.479,13.981,-7.888,120.79373635843703,-0.579455297041069,18.059726256000012
130518248.0,0.041,-0.1377,-0.9341,-65.45,1.164,-8.804,114.11159641246194,-0.6030583821098332,17.945554900000012
130531248.0,0.0327,-0.1406,-0.9375,-64.84,-14.949,-6.851,107.57373930392558,-0.8212527176084378,17.856772544000012
130544248.0,0.0625,-0.1499,-0.9204,-63.68,-30.391,0.168,101.19583636344164,-1.2689895320962452,17.859237188000012
130557248.0,0.0557,-0.1934,-0.8994,-64.84,-40.645,5.478,94.98842194840425,-1.8310167092904526,17.930731832000014
130570248.0,0.0215,-0.2075,-0.9346,-72.103,-39.608,1.877,88.82026772864852,-2.325025968997935,17.955413476000015
130583248.0,-0.0015,-0.249,-1.1113,-72.469,-25.02,-0.869,82.77304259719169,-2.5960643774040966,17.944397120000016
130596248.0,-0.0142,-0.27,-1.1299,-69.723,-4.635,-7.949,76.89794840500156,-2.5894801959931266,17.841340764000016
130609248.0,0.0078,-0.2856,-1.1226,-65.939,6.047,-11.978,71.20525306708898,-2.4686613260725867,17.685907408000016
130622248.0,0.043,-0.2778,-1.0591,-55.319,3.239,-12.344,65.77018464339157,-2.4232959685138096,17.525716052000018
130635248.0,0.0757,-0.2993,-0.9849,-44.576,-10.494,-11.489,60.62480240594379,-2.592936155512725,17.37663969600002
130648248.0,0.106,-0.2886,-1.019,-32.98,-18.673,-8.193,55.70825457824941,-2.8935752736310327,17.27041134000002
130661248.0,0.0688,-0.2832,-1.0054,-24.557,-19.649,-3.372,50.99571249705444,-3.1616949424100045,17.22685598400002
130674248.0,0.0435,-0.2925,-1.0015,-22.421,-15.682,-0.381,46.41562715378206,-3.346292179959586,17.22218362800002
130687248.0,0.0322,-0.3003,-0.9971,-22.787,-8.907,1.328,41.9320773065205,-3.4285573200123047,17.239728272000022
130700248.0,0.0298,-0.3164,-1.0005,-22.36,-0.24,0.596,37.55940306770876,-3.3958711653909712,17.24775691600002
130713248.0,0.0371,-0.3267,-1.001,-21.017,6.291,-1.052,33.301815759404754,-3.288458166380507,17.23436156000002
130726248.0,0.0537,-0.3223,-0.9551,-19.918,2.69,-1.419,29.15481607575316,-3.249700587326119,17.216195204000023
130739248.0,0.064,-0.3462,-0.9683,-14.059,-3.719,0.168,25.18593285186334,-3.3036064588087606,17.218659848000023
130752248.0,0.0796,-0.3628,-1.0024,-4.781,-7.381,0.107,21.41909082850338,-3.417267865007505,17.220331492000025
130765248.0,0.0801,-0.3555,-1.0337,4.313,-7.015,0.229,17.825079974985723,-3.5224057440795127,17.223589136000026
130778248.0,0.0708,-0.3521,-1.0269,13.102,-4.818,0.657,14.413861707063646,-3.588261243203036,17.232410780000027
130791248.0,0.0522,-0.3315,-0.9863,22.44,-1.644,1.267,11.182875770637587,-3.595173306879683,17.249162424000026
130804248.0,0.0444,-0.312,-0.9497,29.032,-1.278,2.549,8.09266961275246,-3.590708687095071,17.282580068000026
130817248.0,0.0327,-0.3135,-0.9639,34.281,-1.217,3.525,5.1277403653985845,-3.571648360479277,17.328685712000027
130830248.0,0.0361,-0.3145,-0.9824,39.347,-0.423,3.464,2.2813504267748663,-3.545985225167417,17.373998356000026
130843248.0,0.0615,-0.3247,-0.9956,45.267,-0.24,2.244,-0.4264648146230807,-3.545636050925639,17.403451000000025
130856248.0,0.0771,-0.3223,-1.0034,52.042,-0.362,0.596,-2.9989208805104868,-3.5633117470769755,17.411479644000025
130869248.0,0.0767,-0.3027,-0.9795,56.986,-4.329,0.29,-5.469630006354009,-3.6330617722428835,17.415530288000024
130882248.0,0.0728,-0.27,-0.9712,60.77,-9.884,1.023,-7.875450990631486,-3.7692305979869207,17.429109932000024
130895248.0,0.0723,-0.2471,-0.9863,63.639,-13.179,1.389,-10.226031238401273,-3.9433852033238246,17.447447576000023
130908248.0,0.062,-0.2568,-1.0156,64.371,-10.128,1.938,-12.517770653228093,-4.061583578376554,17.472922220000022
130921248.0,0.0659,-0.2378,-1.0522,67.362,-1.766,-0.32,-14.754671331070648,-4.07306121690477,17.469042864000023
130934248.0,0.0532,-0.2158,-0.9863,68.217,-1.217,-1.052,-16.94380861256188,-4.06772331260205,17.455647508000023
130947248.0,0.0576,-0.186,-0.9409,65.592,-14.4,-0.625,-19.145794742867963,-4.238854571513779,17.447803152000024
130960248.0,0.0806,-0.1694,-0.9487,59.489,-31.795,-0.32,-21.402657103611823,-4.65505592503461,17.443923796000025
130973248.0,0.0747,-0.166,-0.979,51.371,-49.495,0.596,-23.727814733823994,-5.278858052912132,17.451952440000024
130986248.0,0.0781,-0.165,-1.0635,49.235,-56.82,2.366,-26.049773166288578,-5.980473051683704,17.482991084000023
130999248.0,0.1216,-0.1685,-1.2446,61.503,-23.494,2.488,-28.191176430391742,-6.271072025605398,17.51561572800002
131012248.0,0.1167,-0.1206,-1.1602,71.512,4.643,-0.076,-30.197750116017254,-6.201057435383454,17.514908372000022
131025248.0,0.1074,-0.0815,-1.041,67.118,5.558,2.976,-32.249329572525546,-6.123971262160723,17.553877016000023
131038248.0,0.123,-0.0688,-1.0454,61.136,-4.39,5.6,-34.35031280128284,-6.191636248439569,17.626957660000024
131051248.0,0.1216,-0.063,-1.0581,58.329,-8.175,6.76,-36.4521959463225,-6.3031334844647615,17.715118304000022
131064248.0,0.1113,-0.0425,-1.0908,58.939,-10.494,9.202,-38.527793320021686,-6.427490542820207,17.835024948000022
131077248.0,0.1191,-0.041,-1.1377,63.517,-3.719,10.911,-40.50690167363285,-6.466061937910963,17.977148592000024
131090248.0,0.1133,-0.0215,-1.1084,69.803,2.812,12.497,-42.3853975120776,-6.417916831799441,18.139890236000024
131103248.0,0.123,-0.0181,-1.084,75.907,7.817,13.291,-44.15165133634531,-6.319717168555796,18.312953880000023
131116248.0,0.1167,0.0039,-1.0537,82.133,7.817,13.718,-38.62663418962093,-6.22042480393334,18.491568524000023
131129248.0,0.106,0.0176,-1.0313,86.283,4.032,13.596,-33.17455920592082,-6.1622934614853815,18.668597168000023
131142248.0,0.0991,0.0317,-1.0176,89.823,-0.789,12.681,-27.802557720896043,-6.160584622327646,18.833730812000024
131155248.0,0.1182,0.0522,-1.0439,91.41,-3.109,11.399,-22.539345752978914,-6.20631601542217,18.982198456000024
131168248.0,0.1318,0.084,-1.0303,88.602,-7.869,10.666,-17.453138281719614,-6.328055313637311,19.121137100000023
131181248.0,0.1118,0.1177,-1.0522,79.203,-17.574,11.765,-12.622830742914717,-6.546236563670553,19.274362744000022
131194248.0,0.1323,0.123,-1.188,72.306,-12.874,11.887,-7.967566243622146,-6.70603942947403,19.42917438800002
131207248.0,0.1538,0.1401,-1.2095,70.17,3.178,12.131,-3.4465440404723813,-6.675708584718095,19.587158032000023
131220248.0,0.1377,0.1558,-1.1147,69.498,14.531,10.666,0.9485102801185983,-6.496863027205123,19.726096676000022
131233248.0,0.106,0.1499,-1.0083,71.085,9.709,10.361,5.265893880367074,-6.362257408422817,19.86107032000002
131246248.0,0.0947,0.2236,-0.9087,72.306,-7.686,9.385,9.40512753865881,-6.448794202730379,19.983355964000022
131259248.0,0.082,0.1948,-0.9365,78.165,-19.405,10.972,13.577689026449944,-6.665325646672177,20.126272608000022
131272248.0,0.0923,0.2109,-0.9287,78.654,-27.523,11.155,17.652150211065646,-6.9936702999973,20.271568252000023
131285248.0,0.103,0.2451,-0.9985,77.86,-29.781,11.521,21.615062501586333,-7.34791713832829,20.421621896000023
131298248.0,0.1104,0.2471,-1.0815,77.067,-20.443,12.681,25.507046490662148,-7.57535873364532,20.586755540000024
131311248.0,0.1265,0.2656,-1.0693,77.677,-8.968,12.131,29.307377179439463,-7.669389682052562,20.744739184000025
131324248.0,0.1289,0.2759,-1.0068,77.677,-9.212,12.192,33.004187245012986,-7.774437826216048,20.903515828000025
131337248.0,0.1211,0.2788,-1.0044,77.433,-12.203,12.436,36.620180537933464,-7.9072434139490095,21.065464472000023
131350248.0,0.1392,0.3076,-0.9956,73.771,-15.072,11.155,40.08408992703173,-8.093585185178874,21.210760116000024
131363248.0,0.1387,0.3193,-0.9741,69.742,-18.123,10.117,43.4077999272442,-8.317005336874486,21.342561760000024
131376248.0,0.1431,0.3267,-0.9824,65.47,-20.626,8.53,46.60568878060942,-8.571126254311539,21.453732404000025
131389248.0,0.1523,0.3662,-0.9785,58.268,-21.969,8.53,49.60539680170864,-8.84575669255816,21.564903048000026
131402248.0,0.1636,0.397,-1.0156,49.662,-18.612,9.568,52.41882125188799,-9.076902619223903,21.689567692000026
131415248.0,0.1714,0.3867,-1.0762,42.094,-5.245,10.056,55.11128599738727,-9.132962393238758,21.820576336000027
131428248.0,0.165,0.3979,-1.0513,40.323,4.155,10.3,57.70800946003557,-9.064674343704079,21.954756980000028
131441248.0,0.1919,0.3989,-0.9907,37.516,-0.85,6.943,60.193015814043136,-9.098230808684113,22.045296624000027
131454248.0,0.146,0.4175,-0.9395,31.595,-9.884,6.089,62.51233359686053,-9.204133593839016,22.124734268000026
131467248.0,0.145,0.3896,-0.9492,32.694,-14.583,6.211,64.83214462223343,-9.36700646077725,22.205757912000024
131480248.0,0.1611,0.4238,-0.9028,30.619,-18.184,4.685,67.02250486205249,-9.595141140583191,22.266943556000022
131493248.0,0.1357,0.4399,-0.8906,30.314,-25.814,7.309,69.14237701392727,-9.887985799276327,22.36224120000002
131506248.0,0.1338,0.417,-0.9189,37.882,-27.889,10.911,71.35382291742619,-10.196886284235005,22.504364844000023
131519248.0,0.1479,0.4229,-0.8848,43.253,-26.607,11.277,73.56672094627852,-10.503743871329991,22.651246488000023
131532248.0,0.1514,0.4624,-0.9287,46.549,-29.049,12.375,75.75889724465466,-10.830103751576118,22.812402132000024
131545248.0,0.1528,0.5146,-0.9478,46.915,-31.124,17.746,77.87127991642731,-11.171594466671687,23.043380776000024
131558248.0,0.1392,0.5669,-0.999,46.732,-22.03,28.733,79.91760097965734,-11.367314002460137,23.417190420000026
131571248.0,0.1499,0.5088,-1.0732,52.897,0.431,40.391,82.0856987239732,-11.278635701560985,23.942554064000024
131584248.0,0.1377,0.563,-0.9751,59.366,22.465,50.522,84.20013588488254,-10.906600174621975,24.599620708000025
131597248.0,0.1421,0.5278,-0.8784,61.686,26.738,54.917,86.28185993525032,-10.506010882754532,25.313822352000024
131610248.0,0.1333,0.54,-0.8784,58.146,22.648,58.091,88.2652279311267,-10.154973402800431,26.069285996000023
131623248.0,0.1353,0.5337,-0.8457,54.667,14.775,60.288,90.1511320899112,-9.918037062702233,26.85331064000002
131636248.0,0.1255,0.5156,-0.832,52.103,10.929,55.832,91.97601320499005,-9.726862894612058,27.57940728400002
131649248.0,0.1406,0.5093,-0.8247,51.066,0.798,48.874,93.75297013893633,-9.687522163334128,28.21504992800002
131662248.0,0.1372,0.5176,-0.811,51.249,-11.593,42.038,95.47973373032137,-9.804079022129796,28.76182457200002
131675248.0,0.1484,0.5054,-0.8188,50.394,-19.527,32.334,97.17831478346301,-10.032414484407989,29.18244721600002
131688248.0,0.1621,0.5396,-0.8413,47.281,-24.105,22.873,98.783446648198,-10.323403193186678,29.480076860000022
131701248.0,0.1709,0.562,-0.9268,42.582,-15.56,14.817,100.32548135035903,-10.494668523236507,29.67297850400002
131714248.0,0.1548,0.5791,-0.9404,41.178,3.3,9.263,101.81093372100294,-10.402605410213763,29.79367814800002
131727248.0,0.1021,0.6641,-0.7749,40.079,5.314,11.765,103.07323186006367,-10.241409539392764,29.94690379200002
131740248.0,0.1006,0.6494,-0.7783,38.553,-4.085,16.343,104.3059627645739,-10.202274043181786,30.159643436000017
131753248.0,0.1143,0.6279,-0.8398,43.314,-13.668,18.052,105.6358217167813,-10.297070967073134,30.394600080000018
131766248.0,0.1128,0.6245,-0.79,40.14,-19.405,14.084,106.86780800160263,-10.466467359952722,30.577972724000016
131779248.0,0.1235,0.6201,-0.7954,38.676,-27.034,9.69,108.064229975288,-10.7414694975537,30.704223368000015
131792248.0,0.1182,0.6084,-0.7739,39.286,-29.842,5.295,109.23984819091366,-11.044056718204764,30.773339012000015
131805248.0,0.1099,0.6167,-0.7671,43.741,-32.161,2.61,110.43622084298421,-11.360622837232944,30.807549656000017
131818248.0,0.1016,0.6558,-0.7085,43.436,-40.218,-1.602,111.524964338916,-11.766233413850438,30.787004300000017
131831248.0,0.1562,0.6704,-0.7524,34.586,-50.045,-1.541,112.50091107564533,-12.344990294249309,30.767251944000016
131844248.0,0.1387,0.6807,-0.751,29.276,-55.111,0.412,113.37994221213422,-12.956338470589744,30.772888588000015
131857248.0,0.1362,0.7012,-0.7983,25.919,-50.35,3.159,114.21650263451917,-13.485056557219893,30.814236232000013
131870248.0,0.1392,0.7041,-0.8125,23.295,-42.904,7.554,115.01056790638793,-13.909789294594821,30.912718876000014
131883248.0,0.1641,0.6646,-0.7896,21.647,-36.495,7.798,115.78424930699904,-14.277522828260985,31.014373520000014
131896248.0,0.1724,0.6616,-0.8027,22.257,-29.72,7.859,116.56205009147057,-14.55910655536284,31.116821164000015
131909248.0,0.1611,0.707,-0.7534,23.478,-22.091,7.859,117.26616572353123,-14.726908363928473,31.219268808000017
131922248.0,0.1768,0.6782,-0.7715,22.318,-15.682,5.784,117.97867215175614,-14.827769172926157,31.294741452000018
131935248.0,0.1841,0.6768,-0.7686,20.487,-10.311,2.976,118.65263565697302,-14.866688643790376,31.33371009600002
131948248.0,0.1812,0.6978,-0.7578,17.74,-8.114,1.572,119.25264958475314,-14.872544591748522,31.35442674000002
131961248.0,0.188,0.7036,-0.7446,16.642,-8.114,-0.259,119.8119000266452,-14.886737461409739,31.351340384000018
131974248.0,0.1904,0.7061,-0.7588,17.008,-5.306,-0.381,120.3734016558769,-14.865070692006126,31.346668028000018
131987248.0,0.1919,0.7134,-0.7739,18.29,0.126,-0.503,120.94538678559363,-14.773110087652293,31.340409672000018
132000248.0,0.1899,0.7275,-0.7285,18.717,4.643,0.779,121.46557165265638,-14.627804317509813,31.35081731600002
132013248.0,0.1626,0.73,-0.7339,19.449,7.084,0.535,121.98694431785934,-14.42383369240638,31.35805296000002
132026248.0,0.1914,0.7314,-0.7856,22.623,8.854,3.281,122.57619778038428,-14.22506208598472,31.40098660400002
132039248.0,0.1675,0.7378,-0.6992,19.999,8.427,2.854,123.04853844662789,-14.020641610331026,31.438369248000022
132052248.0,0.1772,0.7192,-0.7187,15.238,6.169,0.168,123.48115232221382,-13.859654510853325,31.440833892000022
132065248.0,0.1675,0.7393,-0.6895,5.656,0.065,0.29,123.74351364345034,-13.770083423890341,31.44488453600002
132078248.0,0.1821,0.7495,-0.7314,-2.767,-3.536,1.267,123.91923775992211,-13.73731084276491,31.46163618000002
132091248.0,0.1992,0.7524,-0.7842,-8.993,4.948,1.816,124.04984456311804,-13.607555146286327,31.48552482400002
132104248.0,0.188,0.7471,-0.7617,-16.317,14.958,2.854,124.07190826446806,-13.344998161348197,31.52290746800002
132117248.0,0.1836,0.7275,-0.7441,-27.12,20.268,2.549,123.95773794587681,-13.020290816968501,31.55632511200002
132130248.0,0.1948,0.7095,-0.7642,-40.487,22.709,-0.808,123.70514375863914,-12.682492943596191,31.54610175600002
132143248.0,0.1865,0.7607,-0.8071,-57.577,22.892,-1.907,123.23126507267884,-12.328399296680175,31.52159140000002
132156248.0,0.1777,0.7524,-0.791,-80.709,18.681,-0.198,122.46691115783709,-12.029033715920896,31.51929804400002
132169248.0,0.1919,0.6733,-0.7891,-97.921,10.868,-4.287,121.56046065866398,-11.85991003404311,31.46384768800002
132182248.0,0.1934,0.6279,-0.7725,-111.349,3.91,-13.015,120.52842123840692,-11.793075336169654,31.29493333200002
132195248.0,0.1709,0.6538,-0.8096,-122.091,2.751,-18.692,119.38380584945824,-11.70898564105091,31.05221797600002
132208248.0,0.1606,0.5962,-0.7891,-131.857,-0.484,-23.818,118.17466929643264,-11.66573510734323,30.74286462000002
132221248.0,0.1494,0.5991,-0.7529,-143.82,-10.128,-26.626,116.80855850070363,-11.738265071153398,30.39700726400002
132234248.0,0.1719,0.5537,-0.8921,-147.238,-14.034,-28.579,115.55989325977693,-11.868545615472172,30.02576090800002
132247248.0,0.2026,0.5098,-0.9111,-151.693,-9.639,-31.997,114.33139942426936,-11.973910506511876,29.61008055200002
132260248.0,0.2114,0.5078,-0.8696,-154.135,-10.921,-33.645,113.07528955644467,-12.11097673568768,29.172976196000022
132273248.0,0.1943,0.4937,-0.9253,-149.74,-11.47,-33.767,111.94429817572174,-12.225095882789262,28.734285840000023
132286248.0,0.1958,0.4624,-0.875,-144.613,-17.696,-31.692,110.90580293894944,-12.43015711199548,28.322570484000025
132299248.0,0.1992,0.436,-0.8765,-140.035,-26.119,-30.96,109.97454664300696,-12.744636994333721,27.920371128000024
132312248.0,0.189,0.4302,-0.9438,-137.045,-29.659,-28.701,109.1388673880393,-13.074433088614139,27.547538772000024
132325248.0,0.2012,0.3921,-0.9849,-130.148,-25.875,-26.565,108.46369412428253,-13.357820092174908,27.202474416000022
132338248.0,0.2085,0.3477,-0.9756,-122.579,-22.884,-26.321,107.9402974293511,-13.610142743849563,26.860582060000024
132351248.0,0.2197,0.3701,-0.9673,-119.955,-23.861,-22.354,107.43436737247194,-13.881754904249387,26.570260704000024
132364248.0,0.21,0.3271,-0.9868,-117.88,-24.288,-18.936,107.01695796087503,-14.142244634019479,26.324373348000023
132377248.0,0.1982,0.2993,-0.9678,-114.706,-22.274,-15.335,106.671422399658,-14.364867632620994,26.125298992000022
132390248.0,0.1992,0.2705,-1.0098,-111.288,-19.222,-12.405,106.42011533450876,-14.538518041628643,25.964314636000022
132403248.0,0.2075,0.2354,-0.9424,-118.002,-21.358,-17.715,106.10772256841382,-14.761306696945315,25.73430028000002
132416248.0,0.2461,0.1851,-0.9355,-124.105,-30.269,-20.217,105.7804793474844,-15.14140727130769,25.471759924000022
132429248.0,0.2573,0.1836,-0.9307,-127.828,-43.026,-18.692,105.41300202443026,-15.690530044729373,25.22904456800002
132442248.0,0.2744,0.1211,-0.9712,-124.471,-55.172,-15.823,105.17668064647067,-16.393137880851942,25.02362621200002
132455248.0,0.3203,0.1035,-1.0386,-112.936,-53.585,-12.649,105.12037480235969,-17.0894412329128,24.859469856000022
132468248.0,0.3223,0.0957,-1.0254,-107.26,-45.65,-10.696,105.14468715315874,-17.67708366462984,24.720702500000023
132481248.0,0.3052,0.0605,-0.9482,-110.067,-44.246,-10.696,105.16637453715838,-18.24369042217505,24.581935144000024
132494248.0,0.2817,0.0264,-0.9331,-111.593,-49.984,-10.269,105.20879071980053,-18.85175742976348,24.448718788000026
132507248.0,0.2935,-0.0103,-0.9541,-113.119,-54.622,-12.1,98.07570010573161,-19.512859845011047,24.291699432000026
132520248.0,0.3174,-0.0415,-0.9634,-113.79,-56.392,-15.579,91.11368415024091,-20.205712381747052,24.089453076000026
132533248.0,0.3423,-0.0337,-0.9194,-113.851,-64.571,-15.579,84.28278370394436,-21.032688679609464,23.887206720000027
132546248.0,0.3779,-0.0488,-0.9624,-108.907,-68.66,-13.626,77.66755956568065,-21.915319580549006,23.710349364000027
132559248.0,0.3765,-0.0693,-1.0137,-102.926,-61.397,-12.283,71.28099913833144,-22.666144892470435,23.550951008000027
132572248.0,0.3789,-0.0952,-0.9941,-94.259,-54.073,-9.475,65.16377547582555,-23.317553332685105,23.428056652000027
132585248.0,0.3916,-0.1157,-0.9917,-86.935,-48.214,-6.607,59.28588946017173,-23.89406134034563,23.342446296000027
132598248.0,0.4355,-0.1519,-0.9912,-82.296,-42.415,-6.24,53.625825881276796,-24.42634316785355,23.26160694000003
132611248.0,0.4399,-0.1646,-0.916,-79.916,-44.307,-6.057,48.13877068599581,-25.00855441196126,23.183146584000028
132624248.0,0.4912,-0.1963,-0.9453,-77.413,-46.993,-2.883,42.82422967740146,-25.646679680511237,23.145948228000027
132637248.0,0.4727,-0.2002,-0.9746,-73.019,-44.124,0.657,37.669495746502385,-26.20442649739812,23.154769872000028
132650248.0,0.4507,-0.2197,-0.9634,-67.526,-37.288,6.455,32.712603895090005,-26.64604694743666,23.23896551600003
132663248.0,0.5063,-0.231,-0.9702,-54.708,-25.386,9.385,28.029072845223226,-26.975138784320126,23.36125116000003
132676248.0,0.4937,-0.2622,-0.9424,-44.454,-22.274,12.192,23.612957212444535,-27.255306134970574,23.52002780400003
132689248.0,0.5029,-0.2695,-0.9375,-39.083,-25.448,12.742,19.36339522597249,-27.58016631042583,23.68595444800003
132702248.0,0.5225,-0.2842,-0.939,-34.994,-28.621,12.192,15.266936568863416,-27.954268880666728,23.84473109200003
132715248.0,0.5381,-0.2988,-0.9141,-30.905,-33.382,8.957,11.329748652784808,-28.405331803974935,23.961452736000027
132728248.0,0.5186,-0.2974,-0.8691,-26.632,-40.035,5.967,7.541524818019023,-28.936519540994297,24.039304380000026
132741248.0,0.5059,-0.3013,-0.8169,-23.336,-50.045,2.549,3.898157846013355,-29.59881423249477,24.072722024000026
132754248.0,0.4858,-0.2817,-0.8232,-23.641,-57.003,-2.029,0.2966794690339296,-30.316884932312465,24.046625668000026
132767248.0,0.4731,-0.2734,-0.8955,-26.815,-51.998,-6.79,-3.3114731126827146,-30.909429837515656,23.958636312000024
132780248.0,0.4971,-0.2896,-0.96,-27.731,-36.129,-10.635,-6.862949353018395,-31.279213142377674,23.820661956000023
132793248.0,0.5269,-0.312,-0.9678,-28.707,-16.719,-16.616,-10.334200203201329,-31.41475874540229,23.604934600000025
132806248.0,0.5229,-0.3018,-0.9248,-30.477,-3.353,-21.621,-13.754469809985293,-31.39465348257561,23.324142244000026
132819248.0,0.5176,-0.2979,-0.8599,-32.675,1.469,-24.307,-17.113650754116343,-31.34093401566649,23.008431888000025
132832248.0,0.5234,-0.2656,-0.8042,-34.017,3.361,-28.091,-20.43937056341163,-31.305911611675818,22.643529532000024
132845248.0,0.4956,-0.2974,-0.7852,-36.154,0.431,-29.129,-23.67644345394372,-31.285626357046013,22.265133176000024
132858248.0,0.4868,-0.2847,-0.7808,-35.482,-1.827,-28.03,-26.854440837955373,-31.290667601782808,21.901023820000024
132871248.0,0.5078,-0.2959,-0.7959,-34.323,-1.156,-28.762,-29.946893121911707,-31.297486578393734,21.527398464000022
132884248.0,0.5029,-0.3267,-0.7861,-32.919,-5.611,-29.556,-32.91614084466602,-31.35476721600166,21.143451108000022
132897248.0,0.4966,-0.3354,-0.8066,-33.529,-11.104,-29.495,-35.83355662987094,-31.46177950730595,20.760296752000023
132910248.0,0.4863,-0.3555,-0.8433,-31.759,-9.212,-28.213,-38.664479107293424,-31.509901203568827,20.393808396000022
132923248.0,0.4907,-0.3477,-0.8491,-28.341,-2.62,-26.87,-41.407028333769546,-31.47613628862216,20.044779040000023
132936248.0,0.4932,-0.3525,-0.8145,-24.923,2.14,-25.1,-44.028515059673815,-31.400874813098703,19.718759684000023
132949248.0,0.4951,-0.3657,-0.7842,-22.848,1.225,-25.1,-46.53915143871152,-31.353095962156004,19.392740328000023
132962248.0,0.48,-0.3711,-0.7827,-19.247,-4.024,-24.063,-48.946385381916,-31.357438633554015,19.080201972000022
132975248.0,0.4805,-0.3677,-0.7793,-15.524,-9.517,-20.645,-51.26019209002298,-31.434731890847132,18.812097616000024
132988248.0,0.4883,-0.3779,-0.7896,-10.214,-12.02,-17.776,-53.45375110370306,-31.542538376444604,18.581290260000024
133001248.0,0.4893,-0.3755,-0.7944,-4.843,-11.654,-14.907,-55.54053806648744,-31.642687135860943,18.387779904000023
133014248.0,0.4956,-0.3848,-0.793,1.017,-9.395,-12.71,-57.49922392727351,-31.716771957299358,18.222830548000022
133027248.0,0.5073,-0.3901,-0.7725,4.984,-8.785,-12.1,-59.3500315577536,-31.802224260306335,18.065811192000023
133040248.0,0.4907,-0.3911,-0.7725,8.219,-11.226,-10.818,-61.12142777875499,-31.900313538538878,17.925457836000025
133053248.0,0.4995,-0.394,-0.8198,10.599,-9.273,-8.804,-62.85073350472001,-31.956218622166965,17.811286480000025
133066248.0,0.5137,-0.4092,-0.8608,12.858,-1.156,-8.071,-64.52155503920305,-31.898583286249337,17.706644124000025
133079248.0,0.5171,-0.3911,-0.8062,16.398,1.286,-5.996,-66.10478771027431,-31.844292542545546,17.628976768000026
133092248.0,0.5,-0.3994,-0.7842,20.243,-1.522,-3.616,-67.58514220848114,-31.819150815270905,17.582249412000024
133105248.0,0.5039,-0.417,-0.7979,25.553,-1.278,-3.311,-68.95619208902275,-31.784061773779225,17.539487056000024
133118248.0,0.5029,-0.4116,-0.8208,30.741,2.507,-3.799,-70.25293642251356,-31.690916687754243,17.490380700000024
133131248.0,0.4912,-0.3872,-0.8247,32.755,7.756,-2.517,-71.5277230782095,-31.5252020174646,17.457940344000026
133144248.0,0.4917,-0.3652,-0.8071,32.755,9.465,0.718,-72.79309891243447,-31.35504958848651,17.467554988000025
133157248.0,0.5127,-0.3926,-0.8052,32.877,6.718,1.999,-73.99867355036208,-31.238329823733032,17.493822632000025
133170248.0,0.5112,-0.3799,-0.7847,28.91,-4.268,2.427,-75.23387158196256,-31.27594106571241,17.525654276000026
133183248.0,0.5088,-0.3608,-0.8125,25.309,-15.01,4.99,-76.52802317212935,-31.43761404305284,17.590804920000025
133196248.0,0.5132,-0.3506,-0.8545,24.271,-15.621,7.004,-77.84223387062951,-31.589327784076737,17.682137564000026
133209248.0,0.4966,-0.3447,-0.8159,22.562,-18.184,10.056,-79.14003831784564,-31.775059542215537,17.813146208000028
133222248.0,0.4976,-0.334,-0.8228,20.853,-22.64,13.23,-80.44984420238693,-32.01357254819969,17.98541685200003
133235248.0,0.5068,-0.3535,-0.8696,19.938,-18.428,14.023,-81.7445427688852,-32.175653172375725,18.16799649600003
133248248.0,0.5288,-0.3789,-0.8774,20.609,-9.456,12.192,-82.98010594593802,-32.23201946028968,18.32677314000003
133261248.0,0.562,-0.3916,-0.8535,17.435,-4.818,6.699,-84.20560204125711,-32.26704558486068,18.41414078400003
133274248.0,0.5566,-0.3755,-0.7998,8.036,-15.56,3.586,-85.51626641989951,-32.46441065005099,18.461039428000028
133287248.0,0.5732,-0.3828,-0.8706,4.13,-22.884,2.549,-86.87877516594337,-32.728511792334096,18.494457072000028
133300248.0,0.5649,-0.3711,-0.9395,7.914,-13.729,2.182,-88.20944654897691,-32.83344829159703,18.523103716000026
133313248.0,0.5527,-0.3584,-0.9395,13.895,6.169,2.793,-89.45076776328473,-32.67439189346972,18.559693360000026
133326248.0,0.5371,-0.3506,-0.9541,20.243,28.385,3.22,-90.60047158973781,-32.216605976104894,18.601834004000025
133339248.0,0.5347,-0.3257,-0.9561,24.821,53.654,4.014,-91.69615855940371,-31.4469305197029,18.654296648000024
133352248.0,0.5161,-0.3359,-0.9473,30.741,79.35,5.845,-92.68026744371151,-30.350963886453716,18.730562292000023
133365248.0,0.5112,-0.3511,-0.937,39.408,100.651,6.333,-93.51392715709481,-29.003178897654525,18.813171936000025
133378248.0,0.5215,-0.3335,-0.9438,46.854,119.755,7.37,-94.25765150702692,-27.448106173157672,18.909262580000025
133391248.0,0.5269,-0.312,-0.9678,54.056,134.587,9.018,-94.92660769412969,-25.732635475566685,19.026777224000025
133404248.0,0.4956,-0.2773,-0.9209,58.39,139.408,12.497,-95.54917557769653,-23.98747169115888,19.189518868000025
133417248.0,0.4438,-0.2134,-0.7939,58.878,122.319,19.7,-96.18732633343323,-22.516919141754475,19.445899512000025
133430248.0,0.4277,-0.2388,-0.7681,59.427,93.388,25.376,-96.76122256169295,-21.437123887708392,19.776068156000026
133443248.0,0.4106,-0.251,-0.7969,66.202,67.509,25.254,-97.23307583314921,-20.672042342864756,20.104650800000027
133456248.0,0.3906,-0.2339,-0.7832,77.921,47.551,22.324,-97.5632882789757,-20.163927869144675,20.395143444000027
133469248.0,0.3662,-0.2134,-0.7817,88.602,28.752,19.639,-97.77799439369073,-19.88103359814601,20.650731088000025
133482248.0,0.3467,-0.207,-0.8291,98.185,12.455,17.197,-97.8913394965518,-19.766687953332404,20.874572732000026
133495248.0,0.3486,-0.1924,-0.8916,106.974,3.056,13.23,-97.92726820583735,-19.751036615183786,21.046843376000027
133508248.0,0.3423,-0.1504,-0.9365,114.664,0.248,10.239,-97.9255788921431,-19.75002543175112,21.180231020000026
133521248.0,0.3262,-0.1113,-0.9434,121.195,-1.094,9.873,-97.88862177946486,-19.748294179720073,21.308860664000026
133534248.0,0.313,-0.0752,-0.9351,127.421,-4.696,12.375,-97.81569908123498,-19.782470593987068,21.470016308000027
133547248.0,0.3237,-0.0659,-0.9468,129.252,-11.837,12.131,-97.73323303555968,-19.914570508578368,21.627999952000028
133560248.0,0.3257,-0.0308,-0.9697,132.487,-16.17,12.375,-97.65444820400589,-20.093724378213757,21.78915559600003
133573248.0,0.3437,-0.0249,-1.0156,133.341,-14.583,11.033,-97.5746545183776,-20.251763808286725,21.93286524000003
133586248.0,0.3394,0.0112,-1.0083,133.829,-9.884,10.483,-90.33105705876086,-20.344993757307055,22.06942488400003
133599248.0,0.3208,0.063,-0.9487,127.054,-14.278,11.338,-83.3819018308438,-20.493180844914537,22.217099528000027
133612248.0,0.3579,0.064,-0.9849,119.12,-16.658,9.873,-76.67118244680451,-20.694469108451603,22.345729172000027
133625248.0,0.3477,0.1118,-1.0278,109.598,-12.63,8.225,-70.26578926885135,-20.813547120803104,22.452934816000027
133638248.0,0.3521,0.1343,-1.0366,100.443,-5.184,9.141,-64.12861900043671,-20.835938632803067,22.572048460000026
133651248.0,0.3589,0.1758,-1.0024,94.34,-1.888,11.155,-58.24325040745787,-20.832078807896522,22.717344104000027
133664248.0,0.3799,0.1797,-0.9761,82.621,2.385,11.826,-52.6345698625326,-20.804252105335404,22.871362748000028
133677248.0,0.3926,0.1963,-0.9639,72.367,2.14,10.849,-47.2902914420807,-20.796346956953602,23.01268039200003
133690248.0,0.3867,0.2314,-0.9829,62.052,1.408,11.155,-42.21904549455567,-20.7818702979689,23.15797603600003
133703248.0,0.3965,0.2344,-0.9946,52.042,0.004,11.46,-37.377019867178234,-20.79062296721533,23.30723668000003
133716248.0,0.397,0.25,-0.9941,45.573,1.957,11.033,-32.73135300860844,-20.773596314593217,23.450946324000032
133729248.0,0.3926,0.2568,-0.9927,40.934,3.422,11.399,-28.24545188308876,-20.73384169094689,23.599413968000032
133742248.0,0.3896,0.25,-0.9951,38.004,5.68,10.3,-23.87857305567035,-20.662948942413344,23.733594612000033
133755248.0,0.3828,0.2446,-0.98,38.309,8.427,8.042,-19.593378561026494,-20.557743455799436,23.838421256000032
133768248.0,0.3726,0.2471,-0.9595,38.37,7.023,4.99,-15.401657699601813,-20.46959149688879,23.90357190000003
133781248.0,0.3638,0.2676,-0.9463,38.981,4.704,2.427,-11.312958379600499,-20.406590711928686,23.93540354400003
133794248.0,0.3477,0.3022,-0.9546,44.657,2.568,2.61,-7.269245021022453,-20.349028483754335,23.969614188000033
133807248.0,0.3804,0.2817,-0.915,47.404,1.469,0.474,-3.2623215465683253,-20.357018075549647,23.976056832000033
133820248.0,0.376,0.2974,-0.9478,49.479,-3.109,-1.235,0.6847228086021286,-20.404424803419182,23.96028247600003
133833248.0,0.374,0.3076,-0.9463,48.563,-5.916,-1.724,4.529431233230304,-20.483989128948576,23.938151120000033
133846248.0,0.3525,0.3257,-0.958,47.648,-5.062,-1.052,8.270189901352001,-20.523229857684118,23.924755764000032
133859248.0,0.3638,0.311,-0.9551,48.746,-2.62,0.596,11.96493506096741,-20.54463020547562,23.932784408000032
133872248.0,0.3647,0.332,-0.9067,44.657,-2.01,-0.93,15.4922002977267,-20.57347311586532,23.92097505200003
133885248.0,0.3574,0.3647,-0.9194,39.957,-4.024,0.351,18.858522890413294,-20.61090077576744,23.925818696000032
133898248.0,0.3589,0.3623,-0.9238,35.563,-3.841,2.182,22.105989251804388,-20.645594877122814,23.95446534000003
133911248.0,0.3696,0.3569,-0.9351,32.45,-1.094,1.816,25.259325946091263,-20.652267196951314,23.97835398400003
133924248.0,0.3716,0.3916,-0.9214,29.948,2.873,3.525,28.275012832979712,-20.610179665259444,24.02445962800003
133937248.0,0.3652,0.3862,-0.9292,27.079,8.122,5.478,31.202968876707533,-20.493739626925656,24.095954272000032
133950248.0,0.3594,0.3618,-0.9019,25.248,11.662,4.563,34.06325315524766,-20.34151596393991,24.15555391600003
133963248.0,0.3501,0.3843,-0.8604,22.44,9.343,4.014,36.78636354296792,-20.22357831594137,24.20801656000003
133976248.0,0.373,0.3877,-0.8726,16.154,5.436,4.38,39.37717348219293,-20.176894173609245,24.26523720400003
133989248.0,0.3701,0.373,-0.8965,11.027,5.802,2.366,41.87815775631602,-20.11702254255421,24.29627584800003
134002248.0,0.3496,0.3804,-0.8882,6.571,5.68,0.107,44.26046862828537,-20.04043307184493,24.29794749200003
134015248.0,0.3433,0.3672,-0.896,2.299,5.07,-0.503,46.5587021164873,-19.965744917845516,24.29168913600003
134028248.0,0.3437,0.3765,-0.8955,-0.936,7.328,-1.419,48.7593821531163,-19.8630494858957,24.273522780000032
134041248.0,0.3511,0.376,-0.8838,-5.697,8.305,-1.968,50.85053313707661,-19.761878972005658,24.248219424000034
134054248.0,0.3545,0.355,-0.853,-10.946,7.206,-3.616,52.84200115586073,-19.694956470636107,24.201492068000032
134067248.0,0.3706,0.3271,-0.8457,-16.622,2.201,-8.01,54.75033819348191,-19.717917138612332,24.09764271200003
134080248.0,0.3779,0.3066,-0.8628,-23.885,-1.522,-14.236,56.55962939230047,-19.791770313941523,23.91285535600003
134093248.0,0.3853,0.3003,-0.8687,-31.271,-2.926,-20.401,58.248501203738144,-19.888370151148518,23.64792300000003
134106248.0,0.4019,0.2974,-0.8721,-37.924,-4.207,-26.077,59.82362652556769,-20.0158078827257,23.30920264400003
134119248.0,0.4062,0.2793,-0.8804,-45.431,-4.146,-30.838,61.29618960509601,-20.143385073081088,22.90858928800003
134132248.0,0.4126,0.271,-0.8623,-52.633,-3.414,-36.087,62.650638984169,-20.275015993678508,22.43973893200003
134145248.0,0.3975,0.2358,-0.8569,-60.018,-5.489,-41.091,63.92513326410581,-20.421676900187407,21.90583657600003
